,rt,old or new,accuracy,test item,condition,trials,block,node type,participant,resp_old,response,node_type,participant_id,stim chosen,trials_exposure,path id,rt_exposure,accuracy_exposure
0,3.5546374917030334,old,1.0,stimuli/177.png,unstructured,0,0,nonboundary,24067.0,1,1,nonboundary,24067.0,stimuli/177.png,169.0,7.0,1.4276314796634804,0.7894736842105263
1,1.4716942002996802,new,1.0,stimuli/299.png,unstructured,1,0,new,24067.0,0,-1,new,24067.0,,,,,0.8605921176035592
2,1.3599063055589795,old,1.0,stimuli/5.png,unstructured,2,0,boundary,24067.0,1,1,boundary,24067.0,stimuli/5.png,118.53846153846153,9.0,0.8617091931832525,1.0
3,2.3934800131246448,new,0.0,stimuli/273.png,unstructured,3,0,new,24067.0,1,1,new,24067.0,,,,,0.8605921176035592
4,1.2697484670206904,new,0.0,stimuli/271.png,unstructured,4,0,new,24067.0,1,1,new,24067.0,,,,,0.8605921176035592
5,1.6519555430859327,new,1.0,stimuli/219.png,unstructured,5,0,new,24067.0,0,-1,new,24067.0,,,,,0.8605921176035592
6,1.1838835580274463,old,1.0,stimuli/57.png,unstructured,6,0,boundary,24067.0,1,1,boundary,24067.0,stimuli/57.png,113.6923076923077,14.0,1.8325668014227772,0.6153846153846154
7,1.4633718593977392,new,1.0,stimuli/123.png,unstructured,7,0,new,24067.0,0,-1,new,24067.0,,,,,0.8605921176035592
8,1.4143005046062171,old,1.0,stimuli/209.png,unstructured,8,0,boundary,24067.0,1,1,boundary,24067.0,stimuli/209.png,95.5,0.0,1.9882305178325623,0.5555555555555556
9,1.1124737011268735,old,1.0,stimuli/9.png,unstructured,9,0,nonboundary,24067.0,1,1,nonboundary,24067.0,stimuli/9.png,108.77777777777777,1.0,1.5257208123803139,1.0
10,2.197348538786173,new,1.0,stimuli/77.png,unstructured,10,0,new,24067.0,0,-1,new,24067.0,,,,,0.8605921176035592
11,1.2809272264130414,old,1.0,stimuli/52.png,unstructured,11,0,boundary,24067.0,1,1,boundary,24067.0,stimuli/52.png,142.58333333333334,4.0,0.9736947448303302,1.0
12,1.5441602347418666,old,1.0,stimuli/148.png,unstructured,12,0,nonboundary,24067.0,1,1,nonboundary,24067.0,stimuli/148.png,111.4,12.0,2.0168722324073314,0.75
13,1.1596349412575364,old,1.0,stimuli/278.png,unstructured,13,0,nonboundary,24067.0,1,1,nonboundary,24067.0,stimuli/278.png,125.33333333333333,6.0,0.8624996101173262,1.0
14,2.8979368465952575,new,1.0,stimuli/193.png,unstructured,14,0,new,24067.0,0,-1,new,24067.0,,,,,0.8605921176035592
15,1.0688924170099199,old,1.0,stimuli/170.png,unstructured,15,0,boundary,24067.0,1,1,boundary,24067.0,stimuli/170.png,150.28571428571428,5.0,1.3946503477747596,0.7619047619047619
16,1.4051239253021777,new,1.0,stimuli/269.png,unstructured,16,0,new,24067.0,0,-1,new,24067.0,,,,,0.8605921176035592
17,1.1309805032797158,old,1.0,stimuli/136.png,unstructured,17,0,boundary,24067.0,1,1,boundary,24067.0,stimuli/136.png,107.56521739130434,10.0,2.4362706041732882,0.8260869565217391
18,1.209537895862013,new,0.0,stimuli/153.png,unstructured,18,0,new,24067.0,1,1,new,24067.0,,,,,0.8605921176035592
19,0.802057116292417,old,1.0,stimuli/265.png,unstructured,19,0,nonboundary,24067.0,1,1,nonboundary,24067.0,stimuli/265.png,123.92857142857143,13.0,1.4643803446087986,0.8571428571428571
20,0.7318640220910311,old,1.0,stimuli/207.png,unstructured,20,0,nonboundary,24067.0,1,1,nonboundary,24067.0,stimuli/207.png,114.56,2.0,1.213184319473803,0.92
21,1.134691764600575,new,1.0,stimuli/201.png,unstructured,21,0,new,24067.0,0,-1,new,24067.0,,,,,0.8605921176035592
22,1.6098829116672277,new,1.0,stimuli/221.png,unstructured,22,0,new,24067.0,0,-1,new,24067.0,,,,,0.8605921176035592
23,1.6087980587035418,old,1.0,stimuli/101.png,unstructured,23,0,nonboundary,24067.0,1,1,nonboundary,24067.0,stimuli/101.png,143.05263157894737,3.0,1.2385930331472896,1.0
24,1.2006456600502133,old,1.0,stimuli/67.png,unstructured,24,0,nonboundary,24067.0,1,1,nonboundary,24067.0,stimuli/67.png,120.41176470588235,8.0,1.3996889688731993,1.0
25,1.0288968244567513,new,1.0,stimuli/254.png,unstructured,25,0,new,24067.0,0,-1,new,24067.0,,,,,0.8605921176035592
26,0.8584239138290286,new,1.0,stimuli/95.png,unstructured,26,0,new,24067.0,0,-1,new,24067.0,,,,,0.8605921176035592
27,1.9812991074286401,new,1.0,stimuli/64.png,unstructured,27,0,new,24067.0,0,-1,new,24067.0,,,,,0.8605921176035592
28,0.9035213966853917,old,1.0,stimuli/154.png,unstructured,28,0,nonboundary,24067.0,1,1,nonboundary,24067.0,stimuli/154.png,115.33333333333333,11.0,1.240944613236934,0.8333333333333334
29,1.862079030368477,new,1.0,stimuli/166.png,unstructured,29,0,new,24067.0,0,-1,new,24067.0,,,,,0.8605921176035592
30,4.090402941219509,old,0.0,stimuli/9.png,unstructured,30,1,nonboundary,24067.0,0,-1,nonboundary,24067.0,stimuli/9.png,352.8636363636364,1.0,0.9129462630741976,0.9545454545454546
31,1.195046016946435,old,1.0,stimuli/278.png,unstructured,31,1,nonboundary,24067.0,1,1,nonboundary,24067.0,stimuli/278.png,364.1,6.0,0.7527474801987409,1.0
32,0.9392666220664978,old,1.0,stimuli/67.png,unstructured,32,1,nonboundary,24067.0,1,1,nonboundary,24067.0,stimuli/67.png,359.0625,8.0,1.3837276328413282,0.9375
33,1.144491667393595,new,1.0,stimuli/14.png,unstructured,33,1,new,24067.0,0,-1,new,24067.0,,,,,0.8913161021984551
34,2.424991170875728,new,1.0,stimuli/23.png,unstructured,34,1,new,24067.0,0,-1,new,24067.0,,,,,0.8913161021984551
35,1.3079558932222426,old,1.0,stimuli/265.png,unstructured,35,1,nonboundary,24067.0,1,1,nonboundary,24067.0,stimuli/265.png,404.8333333333333,13.0,1.1525820691862867,0.9444444444444444
36,1.2324994187802076,new,1.0,stimuli/129.png,unstructured,36,1,new,24067.0,0,-1,new,24067.0,,,,,0.8913161021984551
37,1.7707101656123996,old,1.0,stimuli/170.png,unstructured,37,1,boundary,24067.0,1,1,boundary,24067.0,stimuli/170.png,379.75,5.0,1.5656725699082017,0.875
38,1.014924431219697,old,1.0,stimuli/148.png,unstructured,38,1,nonboundary,24067.0,1,1,nonboundary,24067.0,stimuli/148.png,377.5625,12.0,1.2908772250520997,0.8125
39,1.3324619894847274,new,1.0,stimuli/293.png,unstructured,39,1,new,24067.0,0,-1,new,24067.0,,,,,0.8913161021984551
40,2.6847172710113227,new,1.0,stimuli/124.png,unstructured,40,1,new,24067.0,0,-1,new,24067.0,,,,,0.8913161021984551
41,0.9259815444238484,new,1.0,stimuli/91.png,unstructured,41,1,new,24067.0,0,-1,new,24067.0,,,,,0.8913161021984551
42,1.7535321121104062,new,1.0,stimuli/117.png,unstructured,42,1,new,24067.0,0,-1,new,24067.0,,,,,0.8913161021984551
43,1.172402343712747,old,1.0,stimuli/101.png,unstructured,43,1,nonboundary,24067.0,1,1,nonboundary,24067.0,stimuli/101.png,395.0,3.0,1.303749507457456,0.8235294117647058
44,1.1392811108380556,new,0.0,stimuli/138.png,unstructured,44,1,new,24067.0,1,1,new,24067.0,,,,,0.8913161021984551
45,1.3002112959511578,new,1.0,stimuli/132.png,unstructured,45,1,new,24067.0,0,-1,new,24067.0,,,,,0.8913161021984551
46,0.8910642969422042,old,1.0,stimuli/207.png,unstructured,46,1,nonboundary,24067.0,1,1,nonboundary,24067.0,stimuli/207.png,349.55,2.0,0.8563043596455827,0.95
47,2.795617119874805,old,0.0,stimuli/57.png,unstructured,47,1,boundary,24067.0,0,-1,boundary,24067.0,stimuli/57.png,361.4,14.0,1.173280227681001,0.6666666666666666
48,1.6055709668435156,new,1.0,stimuli/204.png,unstructured,48,1,new,24067.0,0,-1,new,24067.0,,,,,0.8913161021984551
49,1.026774507947266,old,1.0,stimuli/52.png,unstructured,49,1,boundary,24067.0,1,1,boundary,24067.0,stimuli/52.png,382.4736842105263,4.0,0.7360960561046866,1.0
50,0.9222621340304613,old,1.0,stimuli/136.png,unstructured,50,1,boundary,24067.0,1,1,boundary,24067.0,stimuli/136.png,390.4166666666667,10.0,1.2319395603068795,0.9166666666666666
51,0.9631318878382444,new,1.0,stimuli/290.png,unstructured,51,1,new,24067.0,0,-1,new,24067.0,,,,,0.8913161021984551
52,1.1956473048776388,new,1.0,stimuli/297.png,unstructured,52,1,new,24067.0,0,-1,new,24067.0,,,,,0.8913161021984551
53,1.1204960020259023,new,1.0,stimuli/94.png,unstructured,53,1,new,24067.0,0,-1,new,24067.0,,,,,0.8913161021984551
54,1.0427267435006797,old,1.0,stimuli/209.png,unstructured,54,1,boundary,24067.0,1,1,boundary,24067.0,stimuli/209.png,373.05555555555554,0.0,1.473432997888368,0.5555555555555556
55,1.20726133370772,old,1.0,stimuli/5.png,unstructured,55,1,boundary,24067.0,1,1,boundary,24067.0,stimuli/5.png,364.1764705882353,9.0,0.7907213054816512,1.0
56,1.1177482497878373,new,1.0,stimuli/71.png,unstructured,56,1,new,24067.0,0,-1,new,24067.0,,,,,0.8913161021984551
57,1.2666119309142232,old,1.0,stimuli/154.png,unstructured,57,1,nonboundary,24067.0,1,1,nonboundary,24067.0,stimuli/154.png,396.6666666666667,11.0,0.8111102994220952,0.9333333333333333
58,1.125482282601297,new,0.0,stimuli/45.png,unstructured,58,1,new,24067.0,1,1,new,24067.0,,,,,0.8913161021984551
59,1.1370099820196629,old,0.0,stimuli/177.png,unstructured,59,1,nonboundary,24067.0,0,-1,nonboundary,24067.0,stimuli/177.png,375.63157894736844,7.0,1.0120170637965202,1.0
60,2.507838473189622,new,1.0,stimuli/216.png,unstructured,60,2,new,24067.0,0,-1,new,24067.0,,,,,0.9351987365919254
61,0.9977632821537554,old,1.0,stimuli/5.png,unstructured,61,2,boundary,24067.0,1,1,boundary,24067.0,stimuli/5.png,592.6,9.0,0.693851682310924,1.0
62,1.429628511890769,old,1.0,stimuli/170.png,unstructured,62,2,boundary,24067.0,1,1,boundary,24067.0,stimuli/170.png,620.4545454545455,5.0,0.8380049662664533,0.9545454545454546
63,1.1441665734164417,old,1.0,stimuli/9.png,unstructured,63,2,nonboundary,24067.0,1,1,nonboundary,24067.0,stimuli/9.png,642.0909090909091,1.0,0.7028889907947318,1.0
64,0.8973630270920694,new,1.0,stimuli/284.png,unstructured,64,2,new,24067.0,0,-1,new,24067.0,,,,,0.9351987365919254
65,1.07487873127684,old,1.0,stimuli/278.png,unstructured,65,2,nonboundary,24067.0,1,1,nonboundary,24067.0,stimuli/278.png,614.0588235294117,6.0,0.8403715043164351,1.0
66,1.4010468199849129,old,1.0,stimuli/209.png,unstructured,66,2,boundary,24067.0,1,1,boundary,24067.0,stimuli/209.png,619.4736842105264,0.0,0.9098867088997442,0.8947368421052632
67,1.6866189339198172,new,1.0,stimuli/150.png,unstructured,67,2,new,24067.0,0,-1,new,24067.0,,,,,0.9351987365919254
68,1.8942092852666974,new,1.0,stimuli/178.png,unstructured,68,2,new,24067.0,0,-1,new,24067.0,,,,,0.9351987365919254
69,3.899153608828783,new,0.0,stimuli/114.png,unstructured,69,2,new,24067.0,1,1,new,24067.0,,,,,0.9351987365919254
70,0.9374844920821488,new,1.0,stimuli/141.png,unstructured,70,2,new,24067.0,0,-1,new,24067.0,,,,,0.9351987365919254
71,3.3887183093465865,new,1.0,stimuli/53.png,unstructured,71,2,new,24067.0,0,-1,new,24067.0,,,,,0.9351987365919254
72,1.1470223884098232,old,1.0,stimuli/136.png,unstructured,72,2,boundary,24067.0,1,1,boundary,24067.0,stimuli/136.png,635.2352941176471,10.0,1.4533902423401528,0.8235294117647058
73,0.9399101692251861,old,1.0,stimuli/177.png,unstructured,73,2,nonboundary,24067.0,1,1,nonboundary,24067.0,stimuli/177.png,638.0,7.0,0.7919284179806709,1.0
74,1.5647208327427506,new,1.0,stimuli/298.png,unstructured,74,2,new,24067.0,0,-1,new,24067.0,,,,,0.9351987365919254
75,1.3103522905148566,old,1.0,stimuli/57.png,unstructured,75,2,boundary,24067.0,1,1,boundary,24067.0,stimuli/57.png,604.8823529411765,14.0,1.1161273798138343,0.7647058823529411
76,0.9885036931373179,old,1.0,stimuli/265.png,unstructured,76,2,nonboundary,24067.0,1,1,nonboundary,24067.0,stimuli/265.png,620.7894736842105,13.0,0.9900956249452735,1.0
77,3.0403418159112334,new,1.0,stimuli/93.png,unstructured,77,2,new,24067.0,0,-1,new,24067.0,,,,,0.9351987365919254
78,1.0940668117254972,old,1.0,stimuli/101.png,unstructured,78,2,nonboundary,24067.0,1,1,nonboundary,24067.0,stimuli/101.png,605.0,3.0,0.9158101574575994,1.0
79,3.8982987659983337,new,1.0,stimuli/176.png,unstructured,79,2,new,24067.0,0,-1,new,24067.0,,,,,0.9351987365919254
80,1.040640648920089,new,1.0,stimuli/277.png,unstructured,80,2,new,24067.0,0,-1,new,24067.0,,,,,0.9351987365919254
81,0.7468916866928339,new,1.0,stimuli/131.png,unstructured,81,2,new,24067.0,0,-1,new,24067.0,,,,,0.9351987365919254
82,0.7536504380404949,new,1.0,stimuli/39.png,unstructured,82,2,new,24067.0,0,-1,new,24067.0,,,,,0.9351987365919254
83,0.9531551003456116,old,1.0,stimuli/148.png,unstructured,83,2,nonboundary,24067.0,1,1,nonboundary,24067.0,stimuli/148.png,610.6470588235294,12.0,1.239156890386606,0.7647058823529411
84,1.2443458731286228,new,1.0,stimuli/130.png,unstructured,84,2,new,24067.0,0,-1,new,24067.0,,,,,0.9351987365919254
85,0.8305295375175774,old,1.0,stimuli/52.png,unstructured,85,2,boundary,24067.0,1,1,boundary,24067.0,stimuli/52.png,648.125,4.0,0.8334504579834174,1.0
86,1.4607430370524526,old,1.0,stimuli/154.png,unstructured,86,2,nonboundary,24067.0,1,1,nonboundary,24067.0,stimuli/154.png,646.25,11.0,0.7780005649935143,0.9166666666666666
87,1.5936031686142087,old,1.0,stimuli/207.png,unstructured,87,2,nonboundary,24067.0,1,1,nonboundary,24067.0,stimuli/207.png,641.1333333333333,2.0,0.7500416856569548,1.0
88,1.0492153372615576,new,1.0,stimuli/223.png,unstructured,88,2,new,24067.0,0,-1,new,24067.0,,,,,0.9351987365919254
89,0.7689893115311861,old,1.0,stimuli/67.png,unstructured,89,2,nonboundary,24067.0,1,1,nonboundary,24067.0,stimuli/67.png,610.9090909090909,8.0,1.0520554835992781,0.9090909090909091
90,5.888846026267856,new,0.0,stimuli/274.png,structured,0,0,new,24068.0,1,1,new,24068.0,,,,,0.5349491911024419
91,2.697662773076445,new,0.0,stimuli/219.png,structured,1,0,new,24068.0,1,1,new,24068.0,,,,,0.5349491911024419
92,0.9750185641460121,old,1.0,stimuli/247.png,structured,2,0,nonboundary,24068.0,1,1,nonboundary,24068.0,stimuli/247.png,76.5,6.0,0.4584914426319301,0.7
93,0.7368755470961332,old,1.0,stimuli/294.png,structured,3,0,nonboundary,24068.0,1,1,nonboundary,24068.0,stimuli/294.png,114.14285714285714,12.0,0.7132841173914217,0.5714285714285714
94,0.9877539318986237,new,1.0,stimuli/256.png,structured,4,0,new,24068.0,0,-1,new,24068.0,,,,,0.5349491911024419
95,1.018617223482579,new,0.0,stimuli/163.png,structured,5,0,new,24068.0,1,1,new,24068.0,,,,,0.5349491911024419
96,0.9064816320315003,new,1.0,stimuli/137.png,structured,6,0,new,24068.0,0,-1,new,24068.0,,,,,0.5349491911024419
97,1.0016586678102612,new,1.0,stimuli/234.png,structured,7,0,new,24068.0,0,-1,new,24068.0,,,,,0.5349491911024419
98,0.9471915843896568,new,1.0,stimuli/45.png,structured,8,0,new,24068.0,0,-1,new,24068.0,,,,,0.5349491911024419
99,0.7540013282559812,old,1.0,stimuli/283.png,structured,9,0,boundary,24068.0,1,1,boundary,24068.0,stimuli/283.png,134.94444444444446,14.0,0.7193467958519856,0.5
100,0.5946128768846393,old,1.0,stimuli/32.png,structured,10,0,nonboundary,24068.0,1,1,nonboundary,24068.0,stimuli/32.png,102.41666666666667,8.0,0.9138741736921171,0.6666666666666666
101,0.6174819646403193,old,0.0,stimuli/192.png,structured,11,0,boundary,24068.0,0,-1,boundary,24068.0,stimuli/192.png,137.57142857142858,4.0,0.3444462555150191,0.6190476190476191
102,1.5090123456902802,old,0.0,stimuli/68.png,structured,12,0,nonboundary,24068.0,0,-1,nonboundary,24068.0,stimuli/68.png,139.625,2.0,0.4593061592313461,0.5
103,0.5308041293174028,new,1.0,stimuli/56.png,structured,13,0,new,24068.0,0,-1,new,24068.0,,,,,0.5349491911024419
104,0.7090576235204935,old,1.0,stimuli/19.png,structured,14,0,nonboundary,24068.0,1,1,nonboundary,24068.0,stimuli/19.png,101.0,7.0,0.5378011595457791,0.5384615384615384
105,0.8786462009884417,old,1.0,stimuli/95.png,structured,15,0,nonboundary,24068.0,1,1,nonboundary,24068.0,stimuli/95.png,137.41176470588235,11.0,0.3170980107970536,0.5294117647058824
106,0.523128679022193,new,0.0,stimuli/11.png,structured,16,0,new,24068.0,1,1,new,24068.0,,,,,0.5349491911024419
107,0.9766953424550593,new,1.0,stimuli/243.png,structured,17,0,new,24068.0,0,-1,new,24068.0,,,,,0.5349491911024419
108,1.0648757885210216,old,1.0,stimuli/69.png,structured,18,0,nonboundary,24068.0,1,1,nonboundary,24068.0,stimuli/69.png,133.55555555555554,1.0,0.3269139994970626,0.3888888888888889
109,0.6807461739517748,old,1.0,stimuli/23.png,structured,19,0,nonboundary,24068.0,1,1,nonboundary,24068.0,stimuli/23.png,132.0,3.0,0.26881455820985134,0.65
110,0.5249400823377073,new,0.0,stimuli/35.png,structured,20,0,new,24068.0,1,1,new,24068.0,,,,,0.5349491911024419
111,5.832650245632976,new,0.0,stimuli/15.png,structured,21,0,new,24068.0,1,1,new,24068.0,,,,,0.5349491911024419
112,4.2704838663339615,old,1.0,stimuli/295.png,structured,22,0,boundary,24068.0,1,1,boundary,24068.0,stimuli/295.png,139.5,0.0,0.2598215927454558,0.5
113,0.8660545144230127,old,1.0,stimuli/297.png,structured,23,0,boundary,24068.0,1,1,boundary,24068.0,stimuli/297.png,121.9375,10.0,0.3988662689225748,0.5625
114,0.7375879138708115,new,0.0,stimuli/202.png,structured,24,0,new,24068.0,1,1,new,24068.0,,,,,0.5349491911024419
115,0.895469528157264,old,1.0,stimuli/272.png,structured,25,0,nonboundary,24068.0,1,1,nonboundary,24068.0,stimuli/272.png,133.78947368421052,13.0,0.19196709512585866,0.3684210526315789
116,1.0929922424256802,old,1.0,stimuli/135.png,structured,26,0,boundary,24068.0,1,1,boundary,24068.0,stimuli/135.png,122.94117647058823,5.0,0.37830947832587886,0.5294117647058824
117,0.8231685226783156,new,0.0,stimuli/21.png,structured,27,0,new,24068.0,1,1,new,24068.0,,,,,0.5349491911024419
118,0.696688701864332,old,0.0,stimuli/67.png,structured,28,0,boundary,24068.0,0,-1,boundary,24068.0,stimuli/67.png,83.7,9.0,0.5109850584063679,0.4
119,4.157678469084203,new,0.0,stimuli/120.png,structured,29,0,new,24068.0,1,1,new,24068.0,,,,,0.5349491911024419
120,3.9366452349349856,old,1.0,stimuli/19.png,structured,30,1,nonboundary,24068.0,1,1,nonboundary,24068.0,stimuli/19.png,373.3076923076923,7.0,0.18126080572032008,0.6923076923076923
121,1.1531827100552619,new,1.0,stimuli/81.png,structured,31,1,new,24068.0,0,-1,new,24068.0,,,,,0.5016343824783722
122,0.9513568175025284,new,0.0,stimuli/221.png,structured,32,1,new,24068.0,1,1,new,24068.0,,,,,0.5016343824783722
123,0.6848531495779753,old,1.0,stimuli/295.png,structured,33,1,boundary,24068.0,1,1,boundary,24068.0,stimuli/295.png,442.625,0.0,0.2932688316795975,0.5
124,0.8510637204162776,new,1.0,stimuli/52.png,structured,34,1,new,24068.0,0,-1,new,24068.0,,,,,0.5016343824783722
125,0.37329047033563256,old,1.0,stimuli/135.png,structured,35,1,boundary,24068.0,1,1,boundary,24068.0,stimuli/135.png,388.1,5.0,0.30141969274263825,0.35
126,1.3121564192697406,new,0.0,stimuli/200.png,structured,36,1,new,24068.0,1,1,new,24068.0,,,,,0.5016343824783722
127,0.3713242174126208,old,0.0,stimuli/23.png,structured,37,1,nonboundary,24068.0,0,-1,nonboundary,24068.0,stimuli/23.png,402.85714285714283,3.0,0.3400286758052451,0.6190476190476191
128,0.7045811824500561,old,1.0,stimuli/32.png,structured,38,1,nonboundary,24068.0,1,1,nonboundary,24068.0,stimuli/32.png,360.5,8.0,0.71591752457122,0.5
129,0.6567623531445861,new,0.0,stimuli/275.png,structured,39,1,new,24068.0,1,1,new,24068.0,,,,,0.5016343824783722
130,0.7500015092082322,old,0.0,stimuli/68.png,structured,40,1,nonboundary,24068.0,0,-1,nonboundary,24068.0,stimuli/68.png,400.7391304347826,2.0,0.20357843577537843,0.34782608695652173
131,1.281556943897158,old,0.0,stimuli/192.png,structured,41,1,boundary,24068.0,0,-1,boundary,24068.0,stimuli/192.png,367.27777777777777,4.0,0.28085160374434454,0.6111111111111112
132,0.5047299945726991,new,0.0,stimuli/54.png,structured,42,1,new,24068.0,1,1,new,24068.0,,,,,0.5016343824783722
133,0.277111291885376,old,0.0,stimuli/95.png,structured,45,1,nonboundary,24068.0,0,-1,nonboundary,24068.0,stimuli/95.png,331.0,11.0,0.5452912423892745,0.2857142857142857
134,0.3826508494094014,old,1.0,stimuli/272.png,structured,46,1,nonboundary,24068.0,1,1,nonboundary,24068.0,stimuli/272.png,317.4117647058824,13.0,0.557449844035813,0.35294117647058826
135,0.4719282197766006,old,0.0,stimuli/247.png,structured,47,1,nonboundary,24068.0,0,-1,nonboundary,24068.0,stimuli/247.png,381.55,6.0,0.19276676026638592,0.6
136,0.3344857976771891,old,1.0,stimuli/69.png,structured,48,1,nonboundary,24068.0,1,1,nonboundary,24068.0,stimuli/69.png,408.4074074074074,1.0,0.4709124712066518,0.6666666666666666
137,0.3396942256949842,new,0.0,stimuli/74.png,structured,49,1,new,24068.0,1,1,new,24068.0,,,,,0.5016343824783722
138,0.4525971203111112,new,0.0,stimuli/195.png,structured,50,1,new,24068.0,1,1,new,24068.0,,,,,0.5016343824783722
139,0.2694832324050367,old,1.0,stimuli/67.png,structured,51,1,boundary,24068.0,1,1,boundary,24068.0,stimuli/67.png,358.6,9.0,0.2622011731378734,0.4
140,0.26205137465149164,new,1.0,stimuli/245.png,structured,52,1,new,24068.0,0,-1,new,24068.0,,,,,0.5016343824783722
141,0.3233185429126024,new,0.0,stimuli/160.png,structured,53,1,new,24068.0,1,1,new,24068.0,,,,,0.5016343824783722
142,0.29610069701448083,new,1.0,stimuli/142.png,structured,55,1,new,24068.0,0,-1,new,24068.0,,,,,0.5016343824783722
143,0.3263814183883369,new,0.0,stimuli/265.png,structured,56,1,new,24068.0,1,1,new,24068.0,,,,,0.5016343824783722
144,0.2701980136334896,old,1.0,stimuli/294.png,structured,58,1,nonboundary,24068.0,1,1,nonboundary,24068.0,stimuli/294.png,350.85714285714283,12.0,0.47306623881948845,0.42857142857142855
145,0.34974735137075186,old,1.0,stimuli/283.png,structured,59,1,boundary,24068.0,1,1,boundary,24068.0,stimuli/283.png,330.2142857142857,14.0,0.32025092384511866,0.7857142857142857
146,4.297651000786573,old,1.0,stimuli/294.png,structured,60,2,nonboundary,24068.0,1,1,nonboundary,24068.0,stimuli/294.png,631.5,12.0,0.261192705045687,0.4375
147,0.9175610495731235,new,0.0,stimuli/173.png,structured,61,2,new,24068.0,1,1,new,24068.0,,,,,0.4726888020358785
148,0.6154127800837159,old,1.0,stimuli/283.png,structured,62,2,boundary,24068.0,1,1,boundary,24068.0,stimuli/283.png,634.4,14.0,0.5830912131816148,0.36
149,0.9613039935939014,new,1.0,stimuli/218.png,structured,63,2,new,24068.0,0,-1,new,24068.0,,,,,0.4726888020358785
150,0.909833378624171,old,1.0,stimuli/68.png,structured,64,2,nonboundary,24068.0,1,1,nonboundary,24068.0,stimuli/68.png,635.4137931034483,2.0,0.6187235477926403,0.4482758620689655
151,0.9749980377964675,new,1.0,stimuli/79.png,structured,65,2,new,24068.0,0,-1,new,24068.0,,,,,0.4726888020358785
152,0.6958881942555308,old,1.0,stimuli/69.png,structured,66,2,nonboundary,24068.0,1,1,nonboundary,24068.0,stimuli/69.png,641.6818181818181,1.0,0.6765563403129239,0.5454545454545454
153,0.6147985151037574,new,0.0,stimuli/276.png,structured,67,2,new,24068.0,1,1,new,24068.0,,,,,0.4726888020358785
154,0.516343988943845,new,0.0,stimuli/59.png,structured,68,2,new,24068.0,1,1,new,24068.0,,,,,0.4726888020358785
155,0.6898617525584996,old,1.0,stimuli/297.png,structured,69,2,boundary,24068.0,1,1,boundary,24068.0,stimuli/297.png,623.7391304347826,10.0,0.6232666768862501,0.43478260869565216
156,0.5041054664179683,new,0.0,stimuli/199.png,structured,70,2,new,24068.0,1,1,new,24068.0,,,,,0.4726888020358785
157,0.6636330704204738,new,0.0,stimuli/288.png,structured,71,2,new,24068.0,1,1,new,24068.0,,,,,0.4726888020358785
158,2.4752235203050077,old,1.0,stimuli/247.png,structured,72,2,nonboundary,24068.0,1,1,nonboundary,24068.0,stimuli/247.png,593.2,6.0,0.17817205451428883,0.6
159,0.9069498023018241,old,1.0,stimuli/295.png,structured,73,2,boundary,24068.0,1,1,boundary,24068.0,stimuli/295.png,613.0,0.0,0.7119952057061406,0.625
160,0.7088393853046,new,1.0,stimuli/285.png,structured,74,2,new,24068.0,0,-1,new,24068.0,,,,,0.4726888020358785
161,0.8163684383034706,old,1.0,stimuli/32.png,structured,75,2,nonboundary,24068.0,1,1,nonboundary,24068.0,stimuli/32.png,640.5,8.0,0.2797058971288303,0.3333333333333333
162,0.7302378579042852,new,0.0,stimuli/233.png,structured,76,2,new,24068.0,1,1,new,24068.0,,,,,0.4726888020358785
163,0.7194636119529605,new,1.0,stimuli/140.png,structured,77,2,new,24068.0,0,-1,new,24068.0,,,,,0.4726888020358785
164,0.47540613962337375,new,0.0,stimuli/186.png,structured,78,2,new,24068.0,1,1,new,24068.0,,,,,0.4726888020358785
165,0.3955646110698581,old,1.0,stimuli/67.png,structured,79,2,boundary,24068.0,1,1,boundary,24068.0,stimuli/67.png,625.0,9.0,0.36235522513743484,0.5
166,1.1127881915308535,new,1.0,stimuli/266.png,structured,80,2,new,24068.0,0,-1,new,24068.0,,,,,0.4726888020358785
167,0.8411198649555445,old,1.0,stimuli/19.png,structured,81,2,nonboundary,24068.0,1,1,nonboundary,24068.0,stimuli/19.png,596.0,7.0,0.24325998375813163,0.5
168,1.8182130460627377,old,1.0,stimuli/192.png,structured,82,2,boundary,24068.0,1,1,boundary,24068.0,stimuli/192.png,648.6153846153846,4.0,0.39926060590033347,0.23076923076923078
169,0.6626502461731434,old,1.0,stimuli/272.png,structured,83,2,nonboundary,24068.0,1,1,nonboundary,24068.0,stimuli/272.png,609.375,13.0,0.2617388969714132,0.4583333333333333
170,1.8392145852558315,new,1.0,stimuli/242.png,structured,84,2,new,24068.0,0,-1,new,24068.0,,,,,0.4726888020358785
171,2.892740197479725,old,1.0,stimuli/135.png,structured,85,2,boundary,24068.0,1,1,boundary,24068.0,stimuli/135.png,659.2857142857143,5.0,0.8154239488233413,0.5714285714285714
172,1.0894132028333843,new,0.0,stimuli/49.png,structured,86,2,new,24068.0,1,1,new,24068.0,,,,,0.4726888020358785
173,1.011279845610261,old,0.0,stimuli/95.png,structured,87,2,nonboundary,24068.0,0,-1,nonboundary,24068.0,stimuli/95.png,588.45,11.0,0.2505206315312534,0.5
174,4.252614024095237,old,1.0,stimuli/23.png,structured,89,2,nonboundary,24068.0,1,1,nonboundary,24068.0,stimuli/23.png,624.2272727272727,3.0,0.36784277159974654,0.5454545454545454
175,2.8452511252835393,new,1.0,stimuli/34.png,unstructured,0,0,new,24069.0,0,-1,new,24069.0,,,,,0.9551879982762336
176,1.818533365149051,old,1.0,stimuli/252.png,unstructured,1,0,boundary,24069.0,1,1,boundary,24069.0,stimuli/252.png,126.47058823529412,4.0,1.1805053629145466,0.9411764705882353
177,1.2487513925880194,old,1.0,stimuli/246.png,unstructured,2,0,nonboundary,24069.0,1,1,nonboundary,24069.0,stimuli/246.png,130.58333333333334,6.0,0.8999097967753187,1.0
178,3.1163844857364893,new,1.0,stimuli/7.png,unstructured,3,0,new,24069.0,0,-1,new,24069.0,,,,,0.9551879982762336
179,1.024662152864039,old,1.0,stimuli/183.png,unstructured,4,0,nonboundary,24069.0,1,1,nonboundary,24069.0,stimuli/183.png,105.45454545454545,7.0,1.216215778607875,1.0
180,1.084185711108148,new,0.0,stimuli/30.png,unstructured,5,0,new,24069.0,1,1,new,24069.0,,,,,0.9551879982762336
181,0.8420294667594135,new,1.0,stimuli/98.png,unstructured,6,0,new,24069.0,0,-1,new,24069.0,,,,,0.9551879982762336
182,5.252297842409462,new,1.0,stimuli/11.png,unstructured,7,0,new,24069.0,0,-1,new,24069.0,,,,,0.9551879982762336
183,1.1147031746804714,new,1.0,stimuli/259.png,unstructured,8,0,new,24069.0,0,-1,new,24069.0,,,,,0.9551879982762336
184,0.766592612490058,old,1.0,stimuli/221.png,unstructured,9,0,boundary,24069.0,1,1,boundary,24069.0,stimuli/221.png,164.0625,10.0,1.195792193437228,0.8125
185,0.8617581627331674,new,0.0,stimuli/202.png,unstructured,10,0,new,24069.0,1,1,new,24069.0,,,,,0.9551879982762336
186,1.120555164758116,new,1.0,stimuli/160.png,unstructured,11,0,new,24069.0,0,-1,new,24069.0,,,,,0.9551879982762336
187,0.8057686793617904,new,0.0,stimuli/133.png,unstructured,12,0,new,24069.0,1,1,new,24069.0,,,,,0.9551879982762336
188,0.8279016204178333,old,1.0,stimuli/27.png,unstructured,13,0,nonboundary,24069.0,1,1,nonboundary,24069.0,stimuli/27.png,123.38095238095238,3.0,1.1587706978344137,0.9523809523809523
189,0.6437759781256318,old,1.0,stimuli/143.png,unstructured,14,0,nonboundary,24069.0,1,1,nonboundary,24069.0,stimuli/143.png,120.38888888888889,13.0,0.7785750843532797,1.0
190,0.8646245426498353,old,1.0,stimuli/112.png,unstructured,15,0,nonboundary,24069.0,1,1,nonboundary,24069.0,stimuli/112.png,79.91666666666667,11.0,1.3347000152571127,1.0
191,0.6381518854759634,old,1.0,stimuli/227.png,unstructured,16,0,nonboundary,24069.0,1,1,nonboundary,24069.0,stimuli/227.png,113.66666666666667,2.0,0.7355805871387323,0.9523809523809523
192,0.7252655536867678,old,1.0,stimuli/253.png,unstructured,17,0,nonboundary,24069.0,1,1,nonboundary,24069.0,stimuli/253.png,142.15384615384616,12.0,1.0361810985666056,1.0
193,2.157789120450616,new,0.0,stimuli/47.png,unstructured,18,0,new,24069.0,1,1,new,24069.0,,,,,0.9551879982762336
194,2.29340605949983,new,0.0,stimuli/197.png,unstructured,19,0,new,24069.0,1,1,new,24069.0,,,,,0.9551879982762336
195,1.0295796119607985,new,1.0,stimuli/74.png,unstructured,20,0,new,24069.0,0,-1,new,24069.0,,,,,0.9551879982762336
196,0.8562261345796287,new,1.0,stimuli/105.png,unstructured,21,0,new,24069.0,0,-1,new,24069.0,,,,,0.9551879982762336
197,0.8209997918456793,old,1.0,stimuli/257.png,unstructured,22,0,boundary,24069.0,1,1,boundary,24069.0,stimuli/257.png,121.86666666666666,0.0,1.2354865590731303,0.8666666666666667
198,0.8418574114330113,old,1.0,stimuli/119.png,unstructured,23,0,boundary,24069.0,1,1,boundary,24069.0,stimuli/119.png,139.2941176470588,9.0,0.8839204014991137,1.0
199,0.8636872945353389,old,1.0,stimuli/291.png,unstructured,24,0,nonboundary,24069.0,1,1,nonboundary,24069.0,stimuli/291.png,114.3529411764706,1.0,1.0616698091411416,0.9411764705882353
200,1.4778700773604214,new,0.0,stimuli/90.png,unstructured,25,0,new,24069.0,1,1,new,24069.0,,,,,0.9551879982762336
201,0.7743827900849283,old,1.0,stimuli/243.png,unstructured,26,0,boundary,24069.0,1,1,boundary,24069.0,stimuli/243.png,116.2,5.0,1.1185677007073536,0.9
202,0.5608963775448501,old,1.0,stimuli/219.png,unstructured,27,0,boundary,24069.0,1,1,boundary,24069.0,stimuli/219.png,153.76923076923077,14.0,1.0780031007463828,0.9615384615384616
203,0.6283948454074562,old,1.0,stimuli/153.png,unstructured,28,0,nonboundary,24069.0,1,1,nonboundary,24069.0,stimuli/153.png,86.35714285714286,8.0,1.0822222979207123,1.0
204,0.9831929220817983,new,0.0,stimuli/13.png,unstructured,29,0,new,24069.0,1,1,new,24069.0,,,,,0.9551879982762336
205,1.580853876657784,old,1.0,stimuli/112.png,unstructured,30,1,nonboundary,24069.0,1,1,nonboundary,24069.0,stimuli/112.png,367.5625,11.0,0.9860783183539752,0.9375
206,1.287376882508397,new,1.0,stimuli/244.png,unstructured,31,1,new,24069.0,0,-1,new,24069.0,,,,,0.9929347826086957
207,1.0402594110928476,new,1.0,stimuli/85.png,unstructured,32,1,new,24069.0,0,-1,new,24069.0,,,,,0.9929347826086957
208,0.8297740039415658,new,1.0,stimuli/87.png,unstructured,33,1,new,24069.0,0,-1,new,24069.0,,,,,0.9929347826086957
209,0.8605996575206518,old,1.0,stimuli/243.png,unstructured,34,1,boundary,24069.0,1,1,boundary,24069.0,stimuli/243.png,383.1333333333333,5.0,0.8158975798326235,1.0
210,0.6661247429437935,old,1.0,stimuli/143.png,unstructured,35,1,nonboundary,24069.0,1,1,nonboundary,24069.0,stimuli/143.png,392.0,13.0,0.6684264155046549,1.0
211,0.5875715762376785,old,1.0,stimuli/153.png,unstructured,36,1,nonboundary,24069.0,1,1,nonboundary,24069.0,stimuli/153.png,380.2,8.0,0.6427058147887389,1.0
212,0.7097494937479496,new,1.0,stimuli/39.png,unstructured,37,1,new,24069.0,0,-1,new,24069.0,,,,,0.9929347826086957
213,0.686912031378597,old,1.0,stimuli/252.png,unstructured,38,1,boundary,24069.0,1,1,boundary,24069.0,stimuli/252.png,413.4375,4.0,0.7105281755502801,1.0
214,0.8493970520794392,new,0.0,stimuli/208.png,unstructured,39,1,new,24069.0,1,1,new,24069.0,,,,,0.9929347826086957
215,0.595875202678144,new,1.0,stimuli/138.png,unstructured,40,1,new,24069.0,0,-1,new,24069.0,,,,,0.9929347826086957
216,0.7088004732504487,old,1.0,stimuli/227.png,unstructured,41,1,nonboundary,24069.0,1,1,nonboundary,24069.0,stimuli/227.png,369.85,2.0,0.6943438356975093,1.0
217,0.6525474735535681,old,1.0,stimuli/246.png,unstructured,42,1,nonboundary,24069.0,1,1,nonboundary,24069.0,stimuli/246.png,361.14285714285717,6.0,0.7367357072819557,1.0
218,1.6177319497801363,old,1.0,stimuli/27.png,unstructured,43,1,nonboundary,24069.0,1,1,nonboundary,24069.0,stimuli/27.png,389.45,3.0,0.855145220644772,1.0
219,0.8889314159750938,new,1.0,stimuli/164.png,unstructured,44,1,new,24069.0,0,-1,new,24069.0,,,,,0.9929347826086957
220,1.0211332100443542,old,1.0,stimuli/221.png,unstructured,45,1,boundary,24069.0,1,1,boundary,24069.0,stimuli/221.png,355.46666666666664,10.0,0.9509324688153963,1.0
221,0.8113103667274117,old,1.0,stimuli/253.png,unstructured,46,1,nonboundary,24069.0,1,1,nonboundary,24069.0,stimuli/253.png,378.1304347826087,12.0,0.7141508392625205,0.9565217391304348
222,1.0538345677778125,new,1.0,stimuli/89.png,unstructured,47,1,new,24069.0,0,-1,new,24069.0,,,,,0.9929347826086957
223,0.6983844921924174,old,1.0,stimuli/219.png,unstructured,48,1,boundary,24069.0,1,1,boundary,24069.0,stimuli/219.png,361.3333333333333,14.0,0.7231121468357742,1.0
224,0.7905028536915779,new,1.0,stimuli/96.png,unstructured,49,1,new,24069.0,0,-1,new,24069.0,,,,,0.9929347826086957
225,1.7943270076066256,new,1.0,stimuli/198.png,unstructured,50,1,new,24069.0,0,-1,new,24069.0,,,,,0.9929347826086957
226,0.757876053918153,new,1.0,stimuli/154.png,unstructured,51,1,new,24069.0,0,-1,new,24069.0,,,,,0.9929347826086957
227,0.9654162982478738,old,1.0,stimuli/257.png,unstructured,52,1,boundary,24069.0,1,1,boundary,24069.0,stimuli/257.png,394.6666666666667,0.0,0.7530006730929018,1.0
228,1.782291594427079,new,1.0,stimuli/238.png,unstructured,53,1,new,24069.0,0,-1,new,24069.0,,,,,0.9929347826086957
229,0.8645095373503864,new,1.0,stimuli/140.png,unstructured,54,1,new,24069.0,0,-1,new,24069.0,,,,,0.9929347826086957
230,0.624287857208401,old,1.0,stimuli/119.png,unstructured,55,1,boundary,24069.0,1,1,boundary,24069.0,stimuli/119.png,337.0,9.0,1.0109570939093828,1.0
231,0.7454935116693377,old,1.0,stimuli/183.png,unstructured,56,1,nonboundary,24069.0,1,1,nonboundary,24069.0,stimuli/183.png,367.4,7.0,0.8509706630604341,1.0
232,0.7473019026219845,new,1.0,stimuli/279.png,unstructured,57,1,new,24069.0,0,-1,new,24069.0,,,,,0.9929347826086957
233,1.4128217357210815,new,1.0,stimuli/38.png,unstructured,58,1,new,24069.0,0,-1,new,24069.0,,,,,0.9929347826086957
234,0.7010009386576712,old,1.0,stimuli/291.png,unstructured,59,1,nonboundary,24069.0,1,1,nonboundary,24069.0,stimuli/291.png,362.4736842105263,1.0,0.7384400422145662,1.0
235,1.7610910716466606,old,1.0,stimuli/291.png,unstructured,60,2,nonboundary,24069.0,1,1,nonboundary,24069.0,stimuli/291.png,617.9166666666666,1.0,0.6910491796443239,1.0
236,0.8843139978125691,old,1.0,stimuli/257.png,unstructured,61,2,boundary,24069.0,1,1,boundary,24069.0,stimuli/257.png,608.65,0.0,0.728286239434965,1.0
237,0.8971752761863172,new,1.0,stimuli/43.png,unstructured,62,2,new,24069.0,0,-1,new,24069.0,,,,,0.9955555555555555
238,2.168711306527257,new,1.0,stimuli/94.png,unstructured,63,2,new,24069.0,0,-1,new,24069.0,,,,,0.9955555555555555
239,0.9529389748349786,old,1.0,stimuli/253.png,unstructured,64,2,nonboundary,24069.0,1,1,nonboundary,24069.0,stimuli/253.png,611.6111111111111,12.0,0.6420063582611166,1.0
240,0.7598018646240234,new,1.0,stimuli/108.png,unstructured,65,2,new,24069.0,0,-1,new,24069.0,,,,,0.9955555555555555
241,0.8399862353689969,new,1.0,stimuli/111.png,unstructured,66,2,new,24069.0,0,-1,new,24069.0,,,,,0.9955555555555555
242,0.7731282962486148,new,1.0,stimuli/191.png,unstructured,67,2,new,24069.0,0,-1,new,24069.0,,,,,0.9955555555555555
243,0.6799658304080367,new,1.0,stimuli/51.png,unstructured,68,2,new,24069.0,0,-1,new,24069.0,,,,,0.9955555555555555
244,1.372491389978677,new,1.0,stimuli/292.png,unstructured,69,2,new,24069.0,0,-1,new,24069.0,,,,,0.9955555555555555
245,0.7843149034306407,old,1.0,stimuli/112.png,unstructured,70,2,nonboundary,24069.0,1,1,nonboundary,24069.0,stimuli/112.png,639.1176470588235,11.0,0.8220831714022685,1.0
246,0.45685338182374835,old,1.0,stimuli/243.png,unstructured,71,2,boundary,24069.0,1,1,boundary,24069.0,stimuli/243.png,626.1176470588235,5.0,0.6789488402633544,1.0
247,0.6463380916975439,old,1.0,stimuli/119.png,unstructured,72,2,boundary,24069.0,1,1,boundary,24069.0,stimuli/119.png,617.5,9.0,1.1894331384450196,1.0
248,0.7081614541821182,old,1.0,stimuli/221.png,unstructured,73,2,boundary,24069.0,1,1,boundary,24069.0,stimuli/221.png,659.7333333333333,10.0,0.7372371555306018,0.9333333333333333
249,0.5679168342612684,old,1.0,stimuli/143.png,unstructured,74,2,nonboundary,24069.0,1,1,nonboundary,24069.0,stimuli/143.png,605.9333333333333,13.0,0.6509986748918891,1.0
250,0.745760649908334,old,1.0,stimuli/252.png,unstructured,75,2,boundary,24069.0,1,1,boundary,24069.0,stimuli/252.png,600.6666666666666,4.0,0.7945291304495186,1.0
251,0.9489077511243522,new,1.0,stimuli/273.png,unstructured,76,2,new,24069.0,0,-1,new,24069.0,,,,,0.9955555555555555
252,0.5557386451400816,old,1.0,stimuli/246.png,unstructured,77,2,nonboundary,24069.0,1,1,nonboundary,24069.0,stimuli/246.png,620.1538461538462,6.0,0.7371455831095003,1.0
253,1.1042642528191209,new,1.0,stimuli/144.png,unstructured,78,2,new,24069.0,0,-1,new,24069.0,,,,,0.9955555555555555
254,0.7754501360468566,new,1.0,stimuli/8.png,unstructured,79,2,new,24069.0,0,-1,new,24069.0,,,,,0.9955555555555555
255,0.632342154160142,new,1.0,stimuli/76.png,unstructured,80,2,new,24069.0,0,-1,new,24069.0,,,,,0.9955555555555555
256,0.7744132769294083,old,1.0,stimuli/27.png,unstructured,81,2,nonboundary,24069.0,1,1,nonboundary,24069.0,stimuli/27.png,605.7142857142857,3.0,0.7074985025184495,1.0
257,0.7035796539857984,old,1.0,stimuli/183.png,unstructured,82,2,nonboundary,24069.0,1,1,nonboundary,24069.0,stimuli/183.png,620.0,7.0,0.7088893922535997,1.0
258,2.209090552292764,new,0.0,stimuli/37.png,unstructured,83,2,new,24069.0,1,1,new,24069.0,,,,,0.9955555555555555
259,0.5993603770621121,old,1.0,stimuli/219.png,unstructured,84,2,boundary,24069.0,1,1,boundary,24069.0,stimuli/219.png,642.5263157894736,14.0,0.6654709967245397,1.0
260,0.7611466124653816,new,1.0,stimuli/15.png,unstructured,85,2,new,24069.0,0,-1,new,24069.0,,,,,0.9955555555555555
261,1.0649912916123867,old,1.0,stimuli/153.png,unstructured,86,2,nonboundary,24069.0,1,1,nonboundary,24069.0,stimuli/153.png,647.3333333333334,8.0,0.6042922242855032,1.0
262,0.6851836312562227,new,1.0,stimuli/192.png,unstructured,87,2,new,24069.0,0,-1,new,24069.0,,,,,0.9955555555555555
263,0.9300185032188892,new,1.0,stimuli/109.png,unstructured,88,2,new,24069.0,0,-1,new,24069.0,,,,,0.9955555555555555
264,0.6228498378768563,old,1.0,stimuli/227.png,unstructured,89,2,nonboundary,24069.0,1,1,nonboundary,24069.0,stimuli/227.png,646.2222222222222,2.0,0.6943475668732491,1.0
265,7.211169972084463,new,0.0,stimuli/211.png,structured,0,0,new,24070.0,1,1,new,24070.0,,,,,0.7573272828535986
266,2.2008801959455013,old,1.0,stimuli/253.png,structured,1,0,boundary,24070.0,1,1,boundary,24070.0,stimuli/253.png,109.14285714285714,4.0,1.8807309305162303,0.5
267,4.41770986141637,new,1.0,stimuli/114.png,structured,2,0,new,24070.0,0,-1,new,24070.0,,,,,0.7573272828535986
268,1.0582848861813545,new,1.0,stimuli/36.png,structured,3,0,new,24070.0,0,-1,new,24070.0,,,,,0.7573272828535986
269,1.669864167459309,old,0.0,stimuli/285.png,structured,4,0,nonboundary,24070.0,0,-1,nonboundary,24070.0,stimuli/285.png,140.04545454545453,11.0,1.3864971090912481,0.8181818181818182
270,1.8692939719185233,old,1.0,stimuli/41.png,structured,5,0,boundary,24070.0,1,1,boundary,24070.0,stimuli/41.png,87.4,9.0,1.1782536548872788,1.0
271,1.1647589723579586,old,1.0,stimuli/64.png,structured,6,0,nonboundary,24070.0,1,1,nonboundary,24070.0,stimuli/64.png,122.5,3.0,1.2836804008111358,0.7
272,2.616677231620997,old,1.0,stimuli/186.png,structured,7,0,nonboundary,24070.0,1,1,nonboundary,24070.0,stimuli/186.png,112.5,1.0,2.1746164991520347,0.8
273,1.0203459202311933,new,1.0,stimuli/87.png,structured,8,0,new,24070.0,0,-1,new,24070.0,,,,,0.7573272828535986
274,1.1532470039092004,old,1.0,stimuli/205.png,structured,9,0,boundary,24070.0,1,1,boundary,24070.0,stimuli/205.png,164.61904761904762,14.0,1.6160834487305866,0.8095238095238095
275,2.2460702103562653,new,1.0,stimuli/144.png,structured,10,0,new,24070.0,0,-1,new,24070.0,,,,,0.7573272828535986
276,1.301154879387468,old,1.0,stimuli/117.png,structured,11,0,nonboundary,24070.0,1,1,nonboundary,24070.0,stimuli/117.png,96.5,7.0,1.3120060597138945,0.875
277,2.2770331129431725,new,1.0,stimuli/265.png,structured,12,0,new,24070.0,0,-1,new,24070.0,,,,,0.7573272828535986
278,0.9228192823939025,new,1.0,stimuli/148.png,structured,13,0,new,24070.0,0,-1,new,24070.0,,,,,0.7573272828535986
279,1.3536545019596815,new,1.0,stimuli/159.png,structured,14,0,new,24070.0,0,-1,new,24070.0,,,,,0.7573272828535986
280,0.7231748616322875,new,1.0,stimuli/99.png,structured,15,0,new,24070.0,0,-1,new,24070.0,,,,,0.7573272828535986
281,1.1338316882029176,old,1.0,stimuli/204.png,structured,16,0,nonboundary,24070.0,1,1,nonboundary,24070.0,stimuli/204.png,147.33333333333334,12.0,1.5726027548985764,0.9444444444444444
282,0.9945503938943148,new,1.0,stimuli/236.png,structured,17,0,new,24070.0,0,-1,new,24070.0,,,,,0.7573272828535986
283,1.325772284064442,old,0.0,stimuli/263.png,structured,18,0,nonboundary,24070.0,0,-1,nonboundary,24070.0,stimuli/263.png,161.6818181818182,13.0,1.6604110241486607,0.8636363636363636
284,1.258296356536448,old,1.0,stimuli/90.png,structured,19,0,boundary,24070.0,1,1,boundary,24070.0,stimuli/90.png,152.47368421052633,10.0,1.8015637754854794,0.7368421052631579
285,0.9151341724209487,new,1.0,stimuli/22.png,structured,20,0,new,24070.0,0,-1,new,24070.0,,,,,0.7573272828535986
286,0.774630384054035,new,1.0,stimuli/111.png,structured,21,0,new,24070.0,0,-1,new,24070.0,,,,,0.7573272828535986
287,0.8085221406072378,new,1.0,stimuli/180.png,structured,22,0,new,24070.0,0,-1,new,24070.0,,,,,0.7573272828535986
288,2.0684246430173516,old,0.0,stimuli/2.png,structured,23,0,nonboundary,24070.0,0,-1,nonboundary,24070.0,stimuli/2.png,79.10526315789474,8.0,2.2386106781808564,0.5789473684210527
289,1.254861299879849,old,1.0,stimuli/171.png,structured,24,0,nonboundary,24070.0,1,1,nonboundary,24070.0,stimuli/171.png,95.55,6.0,1.7327129856217653,0.9
290,0.6846747561357915,old,1.0,stimuli/233.png,structured,25,0,boundary,24070.0,1,1,boundary,24070.0,stimuli/233.png,91.66666666666667,5.0,1.8327813622308895,0.75
291,1.331558755133301,old,1.0,stimuli/223.png,structured,26,0,boundary,24070.0,1,1,boundary,24070.0,stimuli/223.png,170.25,0.0,1.5271099590851616,0.8333333333333334
292,1.0234157387167215,old,1.0,stimuli/183.png,structured,27,0,nonboundary,24070.0,1,1,nonboundary,24070.0,stimuli/183.png,136.375,2.0,2.093593301891815,0.25
293,0.9422554257325828,new,1.0,stimuli/45.png,structured,28,0,new,24070.0,0,-1,new,24070.0,,,,,0.7573272828535986
294,0.9418186484836042,new,1.0,stimuli/271.png,structured,29,0,new,24070.0,0,-1,new,24070.0,,,,,0.7573272828535986
295,6.024501192383468,new,1.0,stimuli/61.png,structured,30,1,new,24070.0,0,-1,new,24070.0,,,,,0.8215172716835121
296,1.9268969781696796,new,1.0,stimuli/88.png,structured,31,1,new,24070.0,0,-1,new,24070.0,,,,,0.8215172716835121
297,1.1450164509005845,old,1.0,stimuli/186.png,structured,32,1,nonboundary,24070.0,1,1,nonboundary,24070.0,stimuli/186.png,379.5,1.0,1.386651660415477,0.6428571428571429
298,0.9568755468353629,new,1.0,stimuli/27.png,structured,33,1,new,24070.0,0,-1,new,24070.0,,,,,0.8215172716835121
299,1.0817027376033366,new,1.0,stimuli/98.png,structured,34,1,new,24070.0,0,-1,new,24070.0,,,,,0.8215172716835121
300,0.7532940926030278,old,1.0,stimuli/223.png,structured,35,1,boundary,24070.0,1,1,boundary,24070.0,stimuli/223.png,351.45454545454544,0.0,1.3836608957499266,0.8181818181818182
301,1.0244417279027402,new,1.0,stimuli/73.png,structured,36,1,new,24070.0,0,-1,new,24070.0,,,,,0.8215172716835121
302,0.7529662833549082,new,1.0,stimuli/146.png,structured,37,1,new,24070.0,0,-1,new,24070.0,,,,,0.8215172716835121
303,0.6018446073867381,new,1.0,stimuli/34.png,structured,38,1,new,24070.0,0,-1,new,24070.0,,,,,0.8215172716835121
304,1.3070276798680425,new,1.0,stimuli/177.png,structured,39,1,new,24070.0,0,-1,new,24070.0,,,,,0.8215172716835121
305,0.9055869481526315,old,1.0,stimuli/233.png,structured,40,1,boundary,24070.0,1,1,boundary,24070.0,stimuli/233.png,380.11764705882354,5.0,1.830904574434766,0.7058823529411765
306,0.7591119562275708,new,1.0,stimuli/65.png,structured,41,1,new,24070.0,0,-1,new,24070.0,,,,,0.8215172716835121
307,1.2526490385644138,new,1.0,stimuli/47.png,structured,42,1,new,24070.0,0,-1,new,24070.0,,,,,0.8215172716835121
308,0.8761843098327518,old,1.0,stimuli/41.png,structured,43,1,boundary,24070.0,1,1,boundary,24070.0,stimuli/41.png,346.6666666666667,9.0,1.1807876658858731,0.9166666666666666
309,3.256408584769815,new,1.0,stimuli/226.png,structured,44,1,new,24070.0,0,-1,new,24070.0,,,,,0.8215172716835121
310,2.999802288133651,old,1.0,stimuli/263.png,structured,45,1,nonboundary,24070.0,1,1,nonboundary,24070.0,stimuli/263.png,384.84615384615387,13.0,2.74712954260982,0.9230769230769231
311,1.2365733948536217,old,1.0,stimuli/2.png,structured,46,1,nonboundary,24070.0,1,1,nonboundary,24070.0,stimuli/2.png,364.3888888888889,8.0,1.8162368653445609,0.6666666666666666
312,1.3236732170917094,old,1.0,stimuli/205.png,structured,47,1,boundary,24070.0,1,1,boundary,24070.0,stimuli/205.png,367.57142857142856,14.0,1.779280841583386,0.8571428571428571
313,0.6735059916973114,new,1.0,stimuli/290.png,structured,48,1,new,24070.0,0,-1,new,24070.0,,,,,0.8215172716835121
314,0.8377575539052486,new,1.0,stimuli/102.png,structured,49,1,new,24070.0,0,-1,new,24070.0,,,,,0.8215172716835121
315,1.0719532733783126,old,1.0,stimuli/171.png,structured,50,1,nonboundary,24070.0,1,1,nonboundary,24070.0,stimuli/171.png,363.3181818181818,6.0,1.5425647948868573,0.9090909090909091
316,1.1471746806055307,old,1.0,stimuli/64.png,structured,51,1,nonboundary,24070.0,1,1,nonboundary,24070.0,stimuli/64.png,386.42857142857144,3.0,1.540273886007656,0.9285714285714286
317,1.2326505482196808,old,1.0,stimuli/285.png,structured,52,1,nonboundary,24070.0,1,1,nonboundary,24070.0,stimuli/285.png,403.72222222222223,11.0,1.09450538469375,0.9444444444444444
318,0.8724718522280455,old,1.0,stimuli/253.png,structured,53,1,boundary,24070.0,1,1,boundary,24070.0,stimuli/253.png,415.625,4.0,2.1439385054982267,0.625
319,0.9837317760102451,old,1.0,stimuli/204.png,structured,54,1,nonboundary,24070.0,1,1,nonboundary,24070.0,stimuli/204.png,376.85,12.0,1.0787190075265243,0.9
320,0.7295931056141853,new,1.0,stimuli/241.png,structured,55,1,new,24070.0,0,-1,new,24070.0,,,,,0.8215172716835121
321,0.9471266865730286,new,1.0,stimuli/231.png,structured,56,1,new,24070.0,0,-1,new,24070.0,,,,,0.8215172716835121
322,2.4916547439061105,old,1.0,stimuli/90.png,structured,57,1,boundary,24070.0,1,1,boundary,24070.0,stimuli/90.png,391.59090909090907,10.0,1.4699560258198867,0.9090909090909091
323,1.2761130733415484,old,1.0,stimuli/183.png,structured,58,1,nonboundary,24070.0,1,1,nonboundary,24070.0,stimuli/183.png,389.6666666666667,2.0,1.260763454910678,0.75
324,0.7845636755228043,old,1.0,stimuli/117.png,structured,59,1,nonboundary,24070.0,1,1,nonboundary,24070.0,stimuli/117.png,353.60869565217394,7.0,1.1985388211703494,0.8260869565217391
325,0.7860264419578016,new,1.0,stimuli/85.png,structured,60,2,new,24070.0,0,-1,new,24070.0,,,,,0.7165649963689179
326,0.8589242054149508,old,1.0,stimuli/263.png,structured,61,2,nonboundary,24070.0,1,1,nonboundary,24070.0,stimuli/263.png,634.1428571428571,13.0,0.8248233530404312,0.5714285714285714
327,0.7184611670672894,old,1.0,stimuli/205.png,structured,62,2,boundary,24070.0,1,1,boundary,24070.0,stimuli/205.png,646.1428571428571,14.0,0.6050737161588456,1.0
328,1.0360246310010552,new,0.0,stimuli/143.png,structured,63,2,new,24070.0,1,1,new,24070.0,,,,,0.7165649963689179
329,1.1632168190553784,old,1.0,stimuli/2.png,structured,64,2,nonboundary,24070.0,1,1,nonboundary,24070.0,stimuli/2.png,559.5714285714286,8.0,0.928645985699924,0.7857142857142857
330,1.0697062998078763,new,1.0,stimuli/94.png,structured,65,2,new,24070.0,0,-1,new,24070.0,,,,,0.7165649963689179
331,0.6895614112727344,old,1.0,stimuli/117.png,structured,66,2,nonboundary,24070.0,1,1,nonboundary,24070.0,stimuli/117.png,566.0,7.0,0.9006357157486491,0.875
332,0.6233991365879774,old,1.0,stimuli/223.png,structured,67,2,boundary,24070.0,1,1,boundary,24070.0,stimuli/223.png,655.1666666666666,0.0,0.8176477935048752,0.5833333333333334
333,0.5574007667601109,old,1.0,stimuli/186.png,structured,68,2,nonboundary,24070.0,1,1,nonboundary,24070.0,stimuli/186.png,660.074074074074,1.0,1.153575260778544,0.5925925925925926
334,0.4891871172003448,old,1.0,stimuli/233.png,structured,69,2,boundary,24070.0,1,1,boundary,24070.0,stimuli/233.png,579.6666666666666,5.0,0.9246039220597595,0.8333333333333334
335,0.5831193216145039,new,1.0,stimuli/297.png,structured,70,2,new,24070.0,0,-1,new,24070.0,,,,,0.7165649963689179
336,0.6423779772594571,new,1.0,stimuli/270.png,structured,71,2,new,24070.0,0,-1,new,24070.0,,,,,0.7165649963689179
337,0.7018615109845996,new,1.0,stimuli/179.png,structured,72,2,new,24070.0,0,-1,new,24070.0,,,,,0.7165649963689179
338,0.7097805547527969,new,1.0,stimuli/259.png,structured,73,2,new,24070.0,0,-1,new,24070.0,,,,,0.7165649963689179
339,0.5513208974152803,old,1.0,stimuli/41.png,structured,74,2,boundary,24070.0,1,1,boundary,24070.0,stimuli/41.png,562.2857142857143,9.0,1.1448959478709315,0.8571428571428571
340,0.6429010834544897,new,1.0,stimuli/127.png,structured,75,2,new,24070.0,0,-1,new,24070.0,,,,,0.7165649963689179
341,0.7074360833503306,old,1.0,stimuli/285.png,structured,76,2,nonboundary,24070.0,1,1,nonboundary,24070.0,stimuli/285.png,608.0,11.0,0.6687216638820246,0.75
342,0.7909704488702118,old,1.0,stimuli/204.png,structured,77,2,nonboundary,24070.0,1,1,nonboundary,24070.0,stimuli/204.png,626.7142857142857,12.0,0.8118516793474555,0.2857142857142857
343,1.5932288928888738,new,1.0,stimuli/288.png,structured,78,2,new,24070.0,0,-1,new,24070.0,,,,,0.7165649963689179
344,0.8830486880615354,new,1.0,stimuli/249.png,structured,79,2,new,24070.0,0,-1,new,24070.0,,,,,0.7165649963689179
345,0.7128681819885969,old,1.0,stimuli/183.png,structured,80,2,nonboundary,24070.0,1,1,nonboundary,24070.0,stimuli/183.png,655.8666666666667,2.0,1.085803555805857,0.8
346,0.7397663677111268,new,1.0,stimuli/97.png,structured,81,2,new,24070.0,0,-1,new,24070.0,,,,,0.7165649963689179
347,1.123297412879765,old,1.0,stimuli/171.png,structured,82,2,nonboundary,24070.0,1,1,nonboundary,24070.0,stimuli/171.png,554.25,6.0,1.0499308763246518,0.625
348,0.6898258323781192,new,1.0,stimuli/199.png,structured,83,2,new,24070.0,0,-1,new,24070.0,,,,,0.7165649963689179
349,3.96377524221316,new,1.0,stimuli/188.png,structured,84,2,new,24070.0,0,-1,new,24070.0,,,,,0.7165649963689179
350,1.028679706621915,new,1.0,stimuli/273.png,structured,85,2,new,24070.0,0,-1,new,24070.0,,,,,0.7165649963689179
351,0.7101989192888141,old,1.0,stimuli/64.png,structured,86,2,nonboundary,24070.0,1,1,nonboundary,24070.0,stimuli/64.png,651.6,3.0,1.0869438659089308,0.7333333333333333
352,0.5857740952633321,old,1.0,stimuli/90.png,structured,87,2,boundary,24070.0,1,1,boundary,24070.0,stimuli/90.png,601.125,10.0,0.6453351294039749,0.75
353,0.7233131094835699,new,1.0,stimuli/74.png,structured,88,2,new,24070.0,0,-1,new,24070.0,,,,,0.7165649963689179
354,0.9815653958357871,old,1.0,stimuli/253.png,structured,89,2,boundary,24070.0,1,1,boundary,24070.0,stimuli/253.png,652.3235294117648,4.0,0.9638275333734996,0.7058823529411765
355,4.033984319103183,new,0.0,stimuli/177.png,unstructured,0,0,new,24071.0,1,1,new,24071.0,,,,,0.8845743798684975
356,1.2492047565465327,old,1.0,stimuli/262.png,unstructured,1,0,boundary,24071.0,1,1,boundary,24071.0,stimuli/262.png,132.6,0.0,1.31774817964877,1.0
357,2.0501578412659,new,0.0,stimuli/125.png,unstructured,2,0,new,24071.0,1,1,new,24071.0,,,,,0.8845743798684975
358,0.9469268194807228,new,0.0,stimuli/285.png,unstructured,3,0,new,24071.0,1,1,new,24071.0,,,,,0.8845743798684975
359,0.7101422895502765,old,1.0,stimuli/17.png,unstructured,4,0,nonboundary,24071.0,1,1,nonboundary,24071.0,stimuli/17.png,121.84615384615384,13.0,1.6293942956287468,0.9230769230769231
360,0.6883306739619002,old,1.0,stimuli/129.png,unstructured,5,0,nonboundary,24071.0,1,1,nonboundary,24071.0,stimuli/129.png,154.4,12.0,1.86088436585657,0.7333333333333333
361,2.0415597336832434,new,1.0,stimuli/132.png,unstructured,6,0,new,24071.0,0,-1,new,24071.0,,,,,0.8845743798684975
362,0.9040434409107547,new,1.0,stimuli/106.png,unstructured,7,0,new,24071.0,0,-1,new,24071.0,,,,,0.8845743798684975
363,2.170662957447348,old,1.0,stimuli/27.png,unstructured,8,0,boundary,24071.0,1,1,boundary,24071.0,stimuli/27.png,143.1875,10.0,1.6017652397295024,1.0
364,0.7338770389615092,new,0.0,stimuli/78.png,unstructured,9,0,new,24071.0,1,1,new,24071.0,,,,,0.8845743798684975
365,0.7137039056106005,old,1.0,stimuli/114.png,unstructured,10,0,boundary,24071.0,1,1,boundary,24071.0,stimuli/114.png,117.35714285714286,4.0,1.219893902284509,1.0
366,1.927218546596123,old,1.0,stimuli/232.png,unstructured,11,0,boundary,24071.0,1,1,boundary,24071.0,stimuli/232.png,124.23076923076923,5.0,1.8701436883241582,0.9230769230769231
367,0.8597784607554786,old,1.0,stimuli/157.png,unstructured,12,0,nonboundary,24071.0,1,1,nonboundary,24071.0,stimuli/157.png,111.0,11.0,2.073930107237954,0.7857142857142857
368,1.3346264906285796,new,1.0,stimuli/68.png,unstructured,13,0,new,24071.0,0,-1,new,24071.0,,,,,0.8845743798684975
369,0.781820453965338,new,0.0,stimuli/31.png,unstructured,14,0,new,24071.0,1,1,new,24071.0,,,,,0.8845743798684975
370,1.1126691986282822,new,0.0,stimuli/2.png,unstructured,15,0,new,24071.0,1,1,new,24071.0,,,,,0.8845743798684975
371,4.443642912316136,new,0.0,stimuli/107.png,unstructured,16,0,new,24071.0,1,1,new,24071.0,,,,,0.8845743798684975
372,1.0806997780164238,old,1.0,stimuli/104.png,unstructured,17,0,nonboundary,24071.0,1,1,nonboundary,24071.0,stimuli/104.png,110.82352941176471,8.0,1.6611997796708773,1.0
373,3.3242748931224924,new,1.0,stimuli/286.png,unstructured,18,0,new,24071.0,0,-1,new,24071.0,,,,,0.8845743798684975
374,2.0216235583939124,old,1.0,stimuli/12.png,unstructured,19,0,boundary,24071.0,1,1,boundary,24071.0,stimuli/12.png,92.71428571428571,14.0,1.7141448331053002,1.0
375,0.7377924319589511,old,1.0,stimuli/217.png,unstructured,20,0,nonboundary,24071.0,1,1,nonboundary,24071.0,stimuli/217.png,112.47058823529412,6.0,2.1496926540721155,0.9411764705882353
376,7.49031007400481,new,1.0,stimuli/93.png,unstructured,21,0,new,24071.0,0,-1,new,24071.0,,,,,0.8845743798684975
377,0.8683617773640435,old,1.0,stimuli/133.png,unstructured,22,0,nonboundary,24071.0,1,1,nonboundary,24071.0,stimuli/133.png,137.66666666666666,7.0,1.6896991614808536,1.0
378,1.3448938699439168,old,1.0,stimuli/199.png,unstructured,23,0,nonboundary,24071.0,1,1,nonboundary,24071.0,stimuli/199.png,142.86666666666667,3.0,0.8015597779381399,1.0
379,1.1187265721091535,new,1.0,stimuli/98.png,unstructured,24,0,new,24071.0,0,-1,new,24071.0,,,,,0.8845743798684975
380,1.928972338384483,new,1.0,stimuli/6.png,unstructured,25,0,new,24071.0,0,-1,new,24071.0,,,,,0.8845743798684975
381,1.575889679545071,old,1.0,stimuli/184.png,unstructured,26,0,boundary,24071.0,1,1,boundary,24071.0,stimuli/184.png,121.92307692307692,9.0,2.3573084541466622,0.3076923076923077
382,0.8377824102644809,new,1.0,stimuli/34.png,unstructured,27,0,new,24071.0,0,-1,new,24071.0,,,,,0.8845743798684975
383,1.1096195328282192,old,1.0,stimuli/105.png,unstructured,28,0,nonboundary,24071.0,1,1,nonboundary,24071.0,stimuli/105.png,120.75,1.0,2.246460661034507,0.7
384,2.379554651590297,old,0.0,stimuli/67.png,unstructured,29,0,nonboundary,24071.0,0,-1,nonboundary,24071.0,stimuli/67.png,124.86363636363636,2.0,1.3029437385465081,0.9545454545454546
385,2.980034846434137,old,1.0,stimuli/232.png,unstructured,30,1,boundary,24071.0,1,1,boundary,24071.0,stimuli/232.png,369.04761904761904,5.0,0.8589875367650253,1.0
386,0.7178885554603767,old,1.0,stimuli/129.png,unstructured,31,1,nonboundary,24071.0,1,1,nonboundary,24071.0,stimuli/129.png,392.45454545454544,12.0,2.314330693403132,1.0
387,1.106408977007959,old,1.0,stimuli/27.png,unstructured,32,1,boundary,24071.0,1,1,boundary,24071.0,stimuli/27.png,354.3125,10.0,1.3366705938315135,1.0
388,0.6762569796992466,old,1.0,stimuli/199.png,unstructured,33,1,nonboundary,24071.0,1,1,nonboundary,24071.0,stimuli/199.png,387.4761904761905,3.0,1.1463630590185945,0.9047619047619048
389,2.4417837722576223,new,1.0,stimuli/8.png,unstructured,34,1,new,24071.0,0,-1,new,24071.0,,,,,0.8977443609022556
390,2.026071126048919,new,1.0,stimuli/111.png,unstructured,35,1,new,24071.0,0,-1,new,24071.0,,,,,0.8977443609022556
391,1.0419542613672093,new,1.0,stimuli/41.png,unstructured,36,1,new,24071.0,0,-1,new,24071.0,,,,,0.8977443609022556
392,0.7734861697827,old,1.0,stimuli/17.png,unstructured,37,1,nonboundary,24071.0,1,1,nonboundary,24071.0,stimuli/17.png,393.6,13.0,1.2323695628670976,0.9
393,0.786276775499573,old,1.0,stimuli/105.png,unstructured,38,1,nonboundary,24071.0,1,1,nonboundary,24071.0,stimuli/105.png,375.7,1.0,2.0527152077644133,0.6
394,2.309555116458796,new,1.0,stimuli/5.png,unstructured,39,1,new,24071.0,0,-1,new,24071.0,,,,,0.8977443609022556
395,1.897471400530776,new,0.0,stimuli/291.png,unstructured,40,1,new,24071.0,1,1,new,24071.0,,,,,0.8977443609022556
396,1.7404019896057434,new,1.0,stimuli/259.png,unstructured,41,1,new,24071.0,0,-1,new,24071.0,,,,,0.8977443609022556
397,0.9502707963110879,new,1.0,stimuli/102.png,unstructured,42,1,new,24071.0,0,-1,new,24071.0,,,,,0.8977443609022556
398,1.9204702214628924,new,1.0,stimuli/265.png,unstructured,43,1,new,24071.0,0,-1,new,24071.0,,,,,0.8977443609022556
399,0.7526884933758993,old,1.0,stimuli/114.png,unstructured,44,1,boundary,24071.0,1,1,boundary,24071.0,stimuli/114.png,365.73333333333335,4.0,1.0917565145374586,1.0
400,0.7821561194432434,old,1.0,stimuli/133.png,unstructured,45,1,nonboundary,24071.0,1,1,nonboundary,24071.0,stimuli/133.png,357.1333333333333,7.0,1.0621423668441519,1.0
401,3.301099787437124,new,0.0,stimuli/299.png,unstructured,46,1,new,24071.0,1,1,new,24071.0,,,,,0.8977443609022556
402,0.8411037478072103,old,1.0,stimuli/104.png,unstructured,47,1,nonboundary,24071.0,1,1,nonboundary,24071.0,stimuli/104.png,375.2916666666667,8.0,1.5050271842774237,0.9166666666666666
403,2.283966056711506,new,1.0,stimuli/188.png,unstructured,48,1,new,24071.0,0,-1,new,24071.0,,,,,0.8977443609022556
404,1.6008780429547187,old,1.0,stimuli/12.png,unstructured,49,1,boundary,24071.0,1,1,boundary,24071.0,stimuli/12.png,369.85,14.0,1.1820033192256232,1.0
405,1.9364659495768137,old,1.0,stimuli/67.png,unstructured,50,1,nonboundary,24071.0,1,1,nonboundary,24071.0,stimuli/67.png,373.4761904761905,2.0,1.0668835181803886,1.0
406,1.285363656730624,old,1.0,stimuli/262.png,unstructured,51,1,boundary,24071.0,1,1,boundary,24071.0,stimuli/262.png,388.09090909090907,0.0,1.0630099984489128,1.0
407,0.8002192692365497,old,1.0,stimuli/157.png,unstructured,52,1,nonboundary,24071.0,1,1,nonboundary,24071.0,stimuli/157.png,385.4166666666667,11.0,1.5269064914027695,0.5833333333333334
408,0.6947089218883775,old,1.0,stimuli/184.png,unstructured,53,1,boundary,24071.0,1,1,boundary,24071.0,stimuli/184.png,382.125,9.0,2.0448372515396236,0.6666666666666666
409,0.898191934247734,old,1.0,stimuli/217.png,unstructured,54,1,nonboundary,24071.0,1,1,nonboundary,24071.0,stimuli/217.png,363.36842105263156,6.0,1.0914097279892303,0.8947368421052632
410,2.385765670478577,new,1.0,stimuli/283.png,unstructured,55,1,new,24071.0,0,-1,new,24071.0,,,,,0.8977443609022556
411,1.2699912642419804,new,0.0,stimuli/14.png,unstructured,56,1,new,24071.0,1,1,new,24071.0,,,,,0.8977443609022556
412,1.0788714274240192,new,1.0,stimuli/101.png,unstructured,57,1,new,24071.0,0,-1,new,24071.0,,,,,0.8977443609022556
413,2.63313996346551,new,0.0,stimuli/171.png,unstructured,58,1,new,24071.0,1,1,new,24071.0,,,,,0.8977443609022556
414,0.9430742128461134,new,1.0,stimuli/252.png,unstructured,59,1,new,24071.0,0,-1,new,24071.0,,,,,0.8977443609022556
415,2.5202009042259306,new,0.0,stimuli/226.png,unstructured,60,2,new,24071.0,1,1,new,24071.0,,,,,0.947036180194075
416,1.2667927827278618,old,1.0,stimuli/67.png,unstructured,61,2,nonboundary,24071.0,1,1,nonboundary,24071.0,stimuli/67.png,647.8333333333334,2.0,1.178715004910676,0.8888888888888888
417,1.5363394109299406,new,1.0,stimuli/115.png,unstructured,62,2,new,24071.0,0,-1,new,24071.0,,,,,0.947036180194075
418,1.1998187647841405,old,1.0,stimuli/184.png,unstructured,63,2,boundary,24071.0,1,1,boundary,24071.0,stimuli/184.png,589.1111111111111,9.0,1.5041779083419695,1.0
419,2.1421187132655177,old,0.0,stimuli/27.png,unstructured,64,2,boundary,24071.0,0,-1,boundary,24071.0,stimuli/27.png,614.1333333333333,10.0,1.2575222775786339,1.0
420,2.1684198547154665,new,1.0,stimuli/52.png,unstructured,65,2,new,24071.0,0,-1,new,24071.0,,,,,0.947036180194075
421,1.1456489361589774,new,1.0,stimuli/95.png,unstructured,66,2,new,24071.0,0,-1,new,24071.0,,,,,0.947036180194075
422,1.7182055057783145,new,0.0,stimuli/278.png,unstructured,67,2,new,24071.0,1,1,new,24071.0,,,,,0.947036180194075
423,1.1080444406543393,old,1.0,stimuli/105.png,unstructured,68,2,nonboundary,24071.0,1,1,nonboundary,24071.0,stimuli/105.png,639.1428571428571,1.0,1.653302761785675,0.8095238095238095
424,0.9605756059172563,old,1.0,stimuli/114.png,unstructured,69,2,boundary,24071.0,1,1,boundary,24071.0,stimuli/114.png,650.0,4.0,0.8123955021818312,1.0
425,1.5776588660664856,new,1.0,stimuli/241.png,unstructured,70,2,new,24071.0,0,-1,new,24071.0,,,,,0.947036180194075
426,1.8290342795371544,old,1.0,stimuli/12.png,unstructured,71,2,boundary,24071.0,1,1,boundary,24071.0,stimuli/12.png,609.7857142857143,14.0,0.8224566332210088,1.0
427,2.02026821844629,new,1.0,stimuli/88.png,unstructured,72,2,new,24071.0,0,-1,new,24071.0,,,,,0.947036180194075
428,0.8508335189835634,new,1.0,stimuli/192.png,unstructured,73,2,new,24071.0,0,-1,new,24071.0,,,,,0.947036180194075
429,1.0907241620589048,new,0.0,stimuli/51.png,unstructured,74,2,new,24071.0,1,1,new,24071.0,,,,,0.947036180194075
430,0.8355610413127579,old,1.0,stimuli/199.png,unstructured,75,2,nonboundary,24071.0,1,1,nonboundary,24071.0,stimuli/199.png,646.85,3.0,0.8580356867983937,0.95
431,1.214756784378551,old,1.0,stimuli/262.png,unstructured,76,2,boundary,24071.0,1,1,boundary,24071.0,stimuli/262.png,579.875,0.0,1.0695649170156685,1.0
432,1.4702872656635009,old,1.0,stimuli/217.png,unstructured,77,2,nonboundary,24071.0,1,1,nonboundary,24071.0,stimuli/217.png,602.6923076923077,6.0,1.3306602462902306,1.0
433,1.61081277532503,new,1.0,stimuli/92.png,unstructured,78,2,new,24071.0,0,-1,new,24071.0,,,,,0.947036180194075
434,0.9297481120447628,new,1.0,stimuli/77.png,unstructured,79,2,new,24071.0,0,-1,new,24071.0,,,,,0.947036180194075
435,0.8245734301453922,old,1.0,stimuli/133.png,unstructured,80,2,nonboundary,24071.0,1,1,nonboundary,24071.0,stimuli/133.png,654.8947368421053,7.0,1.3390771722035042,0.8947368421052632
436,2.145785979460925,new,0.0,stimuli/176.png,unstructured,81,2,new,24071.0,1,1,new,24071.0,,,,,0.947036180194075
437,0.690976756362943,new,1.0,stimuli/276.png,unstructured,82,2,new,24071.0,0,-1,new,24071.0,,,,,0.947036180194075
438,1.0695389006577898,old,1.0,stimuli/157.png,unstructured,83,2,nonboundary,24071.0,1,1,nonboundary,24071.0,stimuli/157.png,599.6470588235294,11.0,0.9707431591899983,1.0
439,1.012394870602293,new,1.0,stimuli/20.png,unstructured,84,2,new,24071.0,0,-1,new,24071.0,,,,,0.947036180194075
440,0.8018713350757025,old,1.0,stimuli/17.png,unstructured,85,2,nonboundary,24071.0,1,1,nonboundary,24071.0,stimuli/17.png,633.6538461538462,13.0,1.114635544511167,0.8846153846153846
441,0.8297098364855628,old,1.0,stimuli/104.png,unstructured,86,2,nonboundary,24071.0,1,1,nonboundary,24071.0,stimuli/104.png,639.4444444444445,8.0,0.9394584972404927,0.8888888888888888
442,1.135211913002422,old,1.0,stimuli/129.png,unstructured,87,2,nonboundary,24071.0,1,1,nonboundary,24071.0,stimuli/129.png,611.2777777777778,12.0,1.4598112357861182,0.8888888888888888
443,4.072213961393572,new,1.0,stimuli/18.png,unstructured,88,2,new,24071.0,0,-1,new,24071.0,,,,,0.947036180194075
444,1.1878392500511836,old,0.0,stimuli/232.png,unstructured,89,2,boundary,24071.0,0,-1,boundary,24071.0,stimuli/232.png,619.1363636363636,5.0,1.8611374916230985,1.0
445,7.304119254928082,new,1.0,stimuli/16.png,structured,0,0,new,24072.0,0,-1,new,24072.0,,,,,0.5446420921126803
446,1.668286227621138,old,1.0,stimuli/35.png,structured,1,0,boundary,24072.0,1,1,boundary,24072.0,stimuli/35.png,52.69230769230769,4.0,3.535170652043934,0.38461538461538464
447,1.8996598678641021,new,0.0,stimuli/288.png,structured,2,0,new,24072.0,1,1,new,24072.0,,,,,0.5446420921126803
448,1.8198764682747424,new,1.0,stimuli/193.png,structured,3,0,new,24072.0,0,-1,new,24072.0,,,,,0.5446420921126803
449,1.1021150485612452,new,0.0,stimuli/27.png,structured,4,0,new,24072.0,1,1,new,24072.0,,,,,0.5446420921126803
450,0.9808411654084921,old,1.0,stimuli/114.png,structured,5,0,nonboundary,24072.0,1,1,nonboundary,24072.0,stimuli/114.png,139.83333333333334,7.0,2.058981761413937,0.5833333333333334
451,1.215466404799372,old,1.0,stimuli/108.png,structured,6,0,boundary,24072.0,1,1,boundary,24072.0,stimuli/108.png,133.14285714285714,14.0,1.1496001867178296,0.2857142857142857
452,1.0019877254962921,new,1.0,stimuli/245.png,structured,7,0,new,24072.0,0,-1,new,24072.0,,,,,0.5446420921126803
453,0.8566797226667404,new,1.0,stimuli/71.png,structured,8,0,new,24072.0,0,-1,new,24072.0,,,,,0.5446420921126803
454,1.5905629987828434,old,1.0,stimuli/106.png,structured,9,0,boundary,24072.0,1,1,boundary,24072.0,stimuli/106.png,109.33333333333333,0.0,1.4843839215528634,0.5555555555555556
455,3.130975853651762,new,0.0,stimuli/59.png,structured,10,0,new,24072.0,1,1,new,24072.0,,,,,0.5446420921126803
456,0.9324451102875173,new,1.0,stimuli/280.png,structured,11,0,new,24072.0,0,-1,new,24072.0,,,,,0.5446420921126803
457,1.0931948856450617,new,1.0,stimuli/178.png,structured,12,0,new,24072.0,0,-1,new,24072.0,,,,,0.5446420921126803
458,2.039863476064056,old,0.0,stimuli/65.png,structured,13,0,nonboundary,24072.0,0,-1,nonboundary,24072.0,stimuli/65.png,61.77777777777778,1.0,2.8281498863361776,0.6666666666666666
459,5.883134430274367,old,1.0,stimuli/191.png,structured,14,0,nonboundary,24072.0,1,1,nonboundary,24072.0,stimuli/191.png,135.36363636363637,11.0,0.833133705553006,0.6818181818181818
460,3.3209740184247494,old,1.0,stimuli/256.png,structured,15,0,boundary,24072.0,1,1,boundary,24072.0,stimuli/256.png,139.95454545454547,5.0,1.7760093588678336,0.7727272727272727
461,1.5342552834190428,new,0.0,stimuli/33.png,structured,16,0,new,24072.0,1,1,new,24072.0,,,,,0.5446420921126803
462,1.1427410142496228,new,0.0,stimuli/282.png,structured,17,0,new,24072.0,1,1,new,24072.0,,,,,0.5446420921126803
463,4.246461637318134,old,1.0,stimuli/173.png,structured,18,0,nonboundary,24072.0,1,1,nonboundary,24072.0,stimuli/173.png,135.4,8.0,2.0705490650609137,0.3333333333333333
464,0.9812091286294162,new,1.0,stimuli/145.png,structured,19,0,new,24072.0,0,-1,new,24072.0,,,,,0.5446420921126803
465,1.4718609335832298,new,0.0,stimuli/143.png,structured,20,0,new,24072.0,1,1,new,24072.0,,,,,0.5446420921126803
466,2.5464056129567325,old,1.0,stimuli/170.png,structured,21,0,nonboundary,24072.0,1,1,nonboundary,24072.0,stimuli/170.png,141.58823529411765,6.0,1.4275429424939348,0.7058823529411765
467,1.213163239415735,old,1.0,stimuli/70.png,structured,22,0,nonboundary,24072.0,1,1,nonboundary,24072.0,stimuli/70.png,88.0,2.0,2.214454409067652,0.7142857142857143
468,0.8757009110413492,old,1.0,stimuli/224.png,structured,23,0,boundary,24072.0,1,1,boundary,24072.0,stimuli/224.png,112.5,9.0,2.640640111727407,0.625
469,0.9385848725214601,old,1.0,stimuli/123.png,structured,24,0,nonboundary,24072.0,1,1,nonboundary,24072.0,stimuli/123.png,78.54545454545455,3.0,2.55119635080072,0.45454545454545453
470,0.7853262708522379,old,1.0,stimuli/259.png,structured,25,0,boundary,24072.0,1,1,boundary,24072.0,stimuli/259.png,134.64,10.0,1.1192144243605435,0.56
471,1.382160339038819,old,1.0,stimuli/97.png,structured,26,0,nonboundary,24072.0,1,1,nonboundary,24072.0,stimuli/97.png,141.8,12.0,1.1461327800527215,0.5
472,0.9706024937331676,new,0.0,stimuli/230.png,structured,27,0,new,24072.0,1,1,new,24072.0,,,,,0.5446420921126803
473,0.525308255571872,old,1.0,stimuli/169.png,structured,28,0,nonboundary,24072.0,1,1,nonboundary,24072.0,stimuli/169.png,142.42307692307693,13.0,0.8709992282808974,0.34615384615384615
474,0.842342141084373,new,0.0,stimuli/84.png,structured,29,0,new,24072.0,1,1,new,24072.0,,,,,0.5446420921126803
475,5.387589832767844,old,1.0,stimuli/97.png,structured,30,1,nonboundary,24072.0,1,1,nonboundary,24072.0,stimuli/97.png,383.72727272727275,12.0,0.6523291031322018,0.45454545454545453
476,1.4515505162999034,old,1.0,stimuli/123.png,structured,31,1,nonboundary,24072.0,1,1,nonboundary,24072.0,stimuli/123.png,398.25,3.0,1.165587101917481,0.5
477,0.9620110527612269,new,1.0,stimuli/47.png,structured,32,1,new,24072.0,0,-1,new,24072.0,,,,,0.5674656195372307
478,0.8607538808137178,old,1.0,stimuli/169.png,structured,33,1,nonboundary,24072.0,1,1,nonboundary,24072.0,stimuli/169.png,422.35714285714283,13.0,1.145748691267467,0.6428571428571429
479,2.297567156609148,new,0.0,stimuli/85.png,structured,34,1,new,24072.0,1,1,new,24072.0,,,,,0.5674656195372307
480,5.672688201535493,old,1.0,stimuli/259.png,structured,35,1,boundary,24072.0,1,1,boundary,24072.0,stimuli/259.png,386.7647058823529,10.0,1.342113582389977,0.4117647058823529
481,0.9024879620410502,new,1.0,stimuli/163.png,structured,36,1,new,24072.0,0,-1,new,24072.0,,,,,0.5674656195372307
482,0.9292632406577468,old,0.0,stimuli/108.png,structured,37,1,boundary,24072.0,0,-1,boundary,24072.0,stimuli/108.png,414.0,14.0,0.7299604236148298,0.5
483,0.9540676982142031,old,1.0,stimuli/65.png,structured,38,1,nonboundary,24072.0,1,1,nonboundary,24072.0,stimuli/65.png,385.92857142857144,1.0,1.5339621595506157,0.7857142857142857
484,0.896761441603303,old,1.0,stimuli/114.png,structured,39,1,nonboundary,24072.0,1,1,nonboundary,24072.0,stimuli/114.png,341.7142857142857,7.0,2.1650997437536716,0.5714285714285714
485,0.8666699668392539,new,1.0,stimuli/109.png,structured,40,1,new,24072.0,0,-1,new,24072.0,,,,,0.5674656195372307
486,1.7954306164756417,old,1.0,stimuli/256.png,structured,41,1,boundary,24072.0,1,1,boundary,24072.0,stimuli/256.png,320.72727272727275,5.0,1.598410363139754,0.6363636363636364
487,1.9156981096602976,old,1.0,stimuli/35.png,structured,42,1,boundary,24072.0,1,1,boundary,24072.0,stimuli/35.png,358.72727272727275,4.0,1.833942022386261,0.6363636363636364
488,1.1238263817504048,new,0.0,stimuli/115.png,structured,43,1,new,24072.0,1,1,new,24072.0,,,,,0.5674656195372307
489,0.9765282394364476,new,0.0,stimuli/45.png,structured,44,1,new,24072.0,1,1,new,24072.0,,,,,0.5674656195372307
490,1.2913145003840327,new,0.0,stimuli/76.png,structured,45,1,new,24072.0,1,1,new,24072.0,,,,,0.5674656195372307
491,9.31926641613245,new,1.0,stimuli/94.png,structured,46,1,new,24072.0,0,-1,new,24072.0,,,,,0.5674656195372307
492,1.0347660249099135,new,1.0,stimuli/286.png,structured,47,1,new,24072.0,0,-1,new,24072.0,,,,,0.5674656195372307
493,1.0074766846373677,new,1.0,stimuli/146.png,structured,48,1,new,24072.0,0,-1,new,24072.0,,,,,0.5674656195372307
494,0.9201839999295771,new,1.0,stimuli/158.png,structured,49,1,new,24072.0,0,-1,new,24072.0,,,,,0.5674656195372307
495,2.6499882880598307,old,1.0,stimuli/70.png,structured,50,1,nonboundary,24072.0,1,1,nonboundary,24072.0,stimuli/70.png,376.53333333333336,2.0,1.3177268069547912,0.4
496,0.9356674286536872,new,1.0,stimuli/292.png,structured,51,1,new,24072.0,0,-1,new,24072.0,,,,,0.5674656195372307
497,1.808501910418272,new,0.0,stimuli/250.png,structured,52,1,new,24072.0,1,1,new,24072.0,,,,,0.5674656195372307
498,0.8987449412234128,old,1.0,stimuli/173.png,structured,53,1,nonboundary,24072.0,1,1,nonboundary,24072.0,stimuli/173.png,324.1666666666667,8.0,1.7383867237561692,0.5555555555555556
499,0.9935390627942979,new,0.0,stimuli/240.png,structured,54,1,new,24072.0,1,1,new,24072.0,,,,,0.5674656195372307
500,0.8821844873018563,new,1.0,stimuli/142.png,structured,55,1,new,24072.0,0,-1,new,24072.0,,,,,0.5674656195372307
501,5.010229314677417,old,1.0,stimuli/191.png,structured,56,1,nonboundary,24072.0,1,1,nonboundary,24072.0,stimuli/191.png,412.8125,11.0,0.6157215525745414,0.75
502,1.40051985764876,old,1.0,stimuli/106.png,structured,57,1,boundary,24072.0,1,1,boundary,24072.0,stimuli/106.png,390.82608695652175,0.0,1.1469843823098294,0.782608695652174
503,0.92695675464347,old,1.0,stimuli/170.png,structured,58,1,nonboundary,24072.0,1,1,nonboundary,24072.0,stimuli/170.png,338.45,6.0,0.8493824618635699,0.45
504,1.0478186034597456,old,1.0,stimuli/224.png,structured,59,1,boundary,24072.0,1,1,boundary,24072.0,stimuli/224.png,363.69565217391306,9.0,1.2913061800088896,0.43478260869565216
505,5.1349144778214395,new,0.0,stimuli/18.png,structured,60,2,new,24072.0,1,1,new,24072.0,,,,,0.7205469280698114
506,1.871127180289477,old,1.0,stimuli/97.png,structured,61,2,nonboundary,24072.0,1,1,nonboundary,24072.0,stimuli/97.png,620.375,12.0,2.813769520512627,1.0
507,0.9493321725167334,old,1.0,stimuli/123.png,structured,62,2,nonboundary,24072.0,1,1,nonboundary,24072.0,stimuli/123.png,700.3846153846154,3.0,1.3864066012991736,0.6923076923076923
508,1.0201139086857438,new,1.0,stimuli/157.png,structured,63,2,new,24072.0,0,-1,new,24072.0,,,,,0.7205469280698114
509,1.2547940858639777,new,1.0,stimuli/147.png,structured,64,2,new,24072.0,0,-1,new,24072.0,,,,,0.7205469280698114
510,3.5664485855959356,old,1.0,stimuli/70.png,structured,65,2,nonboundary,24072.0,1,1,nonboundary,24072.0,stimuli/70.png,690.7142857142857,2.0,7.429260480616774,0.5714285714285714
511,0.9455637955106795,old,1.0,stimuli/173.png,structured,66,2,nonboundary,24072.0,1,1,nonboundary,24072.0,stimuli/173.png,584.0769230769231,8.0,1.8563947239174292,0.6153846153846154
512,1.6143894409760833,new,1.0,stimuli/159.png,structured,67,2,new,24072.0,0,-1,new,24072.0,,,,,0.7205469280698114
513,0.7667032317258418,new,1.0,stimuli/112.png,structured,68,2,new,24072.0,0,-1,new,24072.0,,,,,0.7205469280698114
514,2.1875383355654776,old,1.0,stimuli/191.png,structured,69,2,nonboundary,24072.0,1,1,nonboundary,24072.0,stimuli/191.png,610.7826086956521,11.0,2.0749106741024423,0.6521739130434783
515,1.1065508304163814,old,1.0,stimuli/114.png,structured,70,2,nonboundary,24072.0,1,1,nonboundary,24072.0,stimuli/114.png,572.9375,7.0,0.8871453487081453,0.9375
516,0.8390971831977367,old,1.0,stimuli/106.png,structured,71,2,boundary,24072.0,1,1,boundary,24072.0,stimuli/106.png,673.4545454545455,0.0,1.9783329846422104,0.8181818181818182
517,1.179840692318976,old,1.0,stimuli/35.png,structured,72,2,boundary,24072.0,1,1,boundary,24072.0,stimuli/35.png,684.8181818181819,4.0,7.383829358584163,0.7272727272727273
518,0.7804458541795611,new,0.0,stimuli/103.png,structured,73,2,new,24072.0,1,1,new,24072.0,,,,,0.7205469280698114
519,2.781315804924816,new,0.0,stimuli/11.png,structured,74,2,new,24072.0,1,1,new,24072.0,,,,,0.7205469280698114
520,0.6447767345234752,old,0.0,stimuli/259.png,structured,75,2,boundary,24072.0,0,-1,boundary,24072.0,stimuli/259.png,623.5925925925926,10.0,1.4769361592415307,0.6666666666666666
521,0.9108098447322845,old,1.0,stimuli/65.png,structured,76,2,nonboundary,24072.0,1,1,nonboundary,24072.0,stimuli/65.png,676.3571428571429,1.0,1.3887913939875685,0.8571428571428571
522,0.7394585656002164,old,1.0,stimuli/169.png,structured,77,2,nonboundary,24072.0,1,1,nonboundary,24072.0,stimuli/169.png,639.8636363636364,13.0,2.3133502612948758,0.6818181818181818
523,1.1963622062467039,new,1.0,stimuli/3.png,structured,78,2,new,24072.0,0,-1,new,24072.0,,,,,0.7205469280698114
524,0.677009881939739,new,1.0,stimuli/197.png,structured,79,2,new,24072.0,0,-1,new,24072.0,,,,,0.7205469280698114
525,0.7059041932225227,new,1.0,stimuli/66.png,structured,80,2,new,24072.0,0,-1,new,24072.0,,,,,0.7205469280698114
526,2.004927203990519,old,1.0,stimuli/256.png,structured,81,2,boundary,24072.0,1,1,boundary,24072.0,stimuli/256.png,590.6363636363636,5.0,1.1433106176555157,0.6363636363636364
527,1.8790729502215981,old,1.0,stimuli/108.png,structured,82,2,boundary,24072.0,1,1,boundary,24072.0,stimuli/108.png,626.1052631578947,14.0,1.1331289965953482,0.5789473684210527
528,1.436241861898452,new,0.0,stimuli/199.png,structured,83,2,new,24072.0,1,1,new,24072.0,,,,,0.7205469280698114
529,5.562889998778701,new,1.0,stimuli/221.png,structured,84,2,new,24072.0,0,-1,new,24072.0,,,,,0.7205469280698114
530,1.1307757226750255,new,1.0,stimuli/90.png,structured,85,2,new,24072.0,0,-1,new,24072.0,,,,,0.7205469280698114
531,0.8204575418494642,new,0.0,stimuli/164.png,structured,87,2,new,24072.0,1,1,new,24072.0,,,,,0.7205469280698114
532,0.8492664285004139,old,1.0,stimuli/170.png,structured,88,2,nonboundary,24072.0,1,1,nonboundary,24072.0,stimuli/170.png,592.5555555555555,6.0,0.9586156530357484,0.6111111111111112
533,0.6540153562091291,old,1.0,stimuli/224.png,structured,89,2,boundary,24072.0,1,1,boundary,24072.0,stimuli/224.png,576.4285714285714,9.0,1.7466244677170402,0.7619047619047619
534,4.286311639472842,old,1.0,stimuli/143.png,unstructured,0,0,nonboundary,241067.0,1,1,nonboundary,241067.0,stimuli/143.png,116.1,8.0,2.1799358064308763,0.85
535,1.7242837846279144,old,1.0,stimuli/60.png,unstructured,1,0,nonboundary,241067.0,1,1,nonboundary,241067.0,stimuli/60.png,122.65217391304348,11.0,1.8357552141761002,0.5652173913043478
536,1.1190553158521652,new,1.0,stimuli/146.png,unstructured,2,0,new,241067.0,0,-1,new,241067.0,,,,,0.6683633551055815
537,1.8016160260885954,old,1.0,stimuli/264.png,unstructured,3,0,nonboundary,241067.0,1,1,nonboundary,241067.0,stimuli/264.png,115.19047619047619,1.0,1.9281343329875242,0.7619047619047619
538,0.9933312982320786,new,1.0,stimuli/261.png,unstructured,4,0,new,241067.0,0,-1,new,241067.0,,,,,0.6683633551055815
539,1.015867181122303,old,1.0,stimuli/77.png,unstructured,5,0,nonboundary,241067.0,1,1,nonboundary,241067.0,stimuli/77.png,150.46666666666667,12.0,2.2533822084466615,0.6
540,1.6046893708407879,old,1.0,stimuli/46.png,unstructured,6,0,boundary,241067.0,1,1,boundary,241067.0,stimuli/46.png,148.86666666666667,9.0,2.8674030115207034,0.4
541,0.7264866624027491,new,1.0,stimuli/106.png,unstructured,7,0,new,241067.0,0,-1,new,241067.0,,,,,0.6683633551055815
542,1.162381799891591,old,1.0,stimuli/156.png,unstructured,8,0,nonboundary,241067.0,1,1,nonboundary,241067.0,stimuli/156.png,131.79166666666666,7.0,1.2334329252286504,0.9166666666666666
543,1.0456184055656195,new,1.0,stimuli/229.png,unstructured,9,0,new,241067.0,0,-1,new,241067.0,,,,,0.6683633551055815
544,3.230761267244816,new,0.0,stimuli/237.png,unstructured,10,0,new,241067.0,1,1,new,241067.0,,,,,0.6683633551055815
545,1.8467043917626143,new,1.0,stimuli/9.png,unstructured,11,0,new,241067.0,0,-1,new,241067.0,,,,,0.6683633551055815
546,0.9678596556186676,old,1.0,stimuli/127.png,unstructured,12,0,boundary,241067.0,1,1,boundary,241067.0,stimuli/127.png,110.6470588235294,0.0,2.945733486839077,0.7058823529411765
547,1.1939917989075184,old,1.0,stimuli/10.png,unstructured,13,0,nonboundary,241067.0,1,1,nonboundary,241067.0,stimuli/10.png,84.47368421052632,13.0,2.4497216266432873,0.6842105263157895
548,0.6978613249957561,new,1.0,stimuli/110.png,unstructured,14,0,new,241067.0,0,-1,new,241067.0,,,,,0.6683633551055815
549,1.1814132407307625,new,0.0,stimuli/200.png,unstructured,15,0,new,241067.0,1,1,new,241067.0,,,,,0.6683633551055815
550,1.1485783476382494,old,1.0,stimuli/286.png,unstructured,16,0,nonboundary,241067.0,1,1,nonboundary,241067.0,stimuli/286.png,105.0,2.0,1.5388706523925066,0.9
551,0.7664001658558846,new,1.0,stimuli/105.png,unstructured,17,0,new,241067.0,0,-1,new,241067.0,,,,,0.6683633551055815
552,2.4156222008168697,old,0.0,stimuli/189.png,unstructured,18,0,boundary,241067.0,0,-1,boundary,241067.0,stimuli/189.png,111.41666666666667,10.0,2.1865324868510165,0.4166666666666667
553,2.0423011109232903,old,1.0,stimuli/8.png,unstructured,19,0,nonboundary,241067.0,1,1,nonboundary,241067.0,stimuli/8.png,92.6,3.0,1.5361401768401266,0.7
554,1.4974220767617226,new,1.0,stimuli/186.png,unstructured,20,0,new,241067.0,0,-1,new,241067.0,,,,,0.6683633551055815
555,6.180651983246207,new,1.0,stimuli/240.png,unstructured,21,0,new,241067.0,0,-1,new,241067.0,,,,,0.6683633551055815
556,0.8779880944639444,old,1.0,stimuli/222.png,unstructured,22,0,boundary,241067.0,1,1,boundary,241067.0,stimuli/222.png,125.6,14.0,2.7712426096946,0.72
557,0.912238348275423,new,1.0,stimuli/73.png,unstructured,23,0,new,241067.0,0,-1,new,241067.0,,,,,0.6683633551055815
558,1.0277363993227482,new,1.0,stimuli/247.png,unstructured,24,0,new,241067.0,0,-1,new,241067.0,,,,,0.6683633551055815
559,0.7922968100756407,old,1.0,stimuli/202.png,unstructured,25,0,nonboundary,241067.0,1,1,nonboundary,241067.0,stimuli/202.png,136.64705882352942,6.0,1.9883332665571396,0.5882352941176471
560,3.293479898944497,new,1.0,stimuli/183.png,unstructured,26,0,new,241067.0,0,-1,new,241067.0,,,,,0.6683633551055815
561,0.8347995541989803,new,1.0,stimuli/88.png,unstructured,27,0,new,241067.0,0,-1,new,241067.0,,,,,0.6683633551055815
562,0.8222689889371395,old,1.0,stimuli/154.png,unstructured,28,0,boundary,241067.0,1,1,boundary,241067.0,stimuli/154.png,171.58333333333334,5.0,2.323999929086616,0.4166666666666667
563,2.0618465952575207,old,1.0,stimuli/228.png,unstructured,29,0,boundary,241067.0,1,1,boundary,241067.0,stimuli/228.png,158.9,4.0,2.244165739044547,0.8
564,2.9014409873634577,new,1.0,stimuli/150.png,unstructured,30,1,new,241067.0,0,-1,new,241067.0,,,,,0.8476379611673729
565,0.9673721734434366,old,1.0,stimuli/8.png,unstructured,31,1,nonboundary,241067.0,1,1,nonboundary,241067.0,stimuli/8.png,370.05555555555554,3.0,1.3900822232373886,0.8888888888888888
566,1.031602755188942,old,1.0,stimuli/189.png,unstructured,32,1,boundary,241067.0,1,1,boundary,241067.0,stimuli/189.png,388.7692307692308,10.0,1.909634849629723,0.7692307692307693
567,0.7208077181130648,old,1.0,stimuli/154.png,unstructured,33,1,boundary,241067.0,1,1,boundary,241067.0,stimuli/154.png,366.88235294117646,5.0,1.8417938411893213,0.7058823529411765
568,0.6320394054055214,new,0.0,stimuli/235.png,unstructured,34,1,new,241067.0,1,1,new,241067.0,,,,,0.8476379611673729
569,0.678853128105402,old,1.0,stimuli/127.png,unstructured,35,1,boundary,241067.0,1,1,boundary,241067.0,stimuli/127.png,390.6666666666667,0.0,2.2683044336736202,0.6666666666666666
570,1.211379986256361,new,0.0,stimuli/103.png,unstructured,36,1,new,241067.0,1,1,new,241067.0,,,,,0.8476379611673729
571,0.558606119826436,old,1.0,stimuli/222.png,unstructured,37,1,boundary,241067.0,1,1,boundary,241067.0,stimuli/222.png,383.84615384615387,14.0,1.8165201654371161,0.9615384615384616
572,1.1841283533722162,new,1.0,stimuli/263.png,unstructured,38,1,new,241067.0,0,-1,new,241067.0,,,,,0.8476379611673729
573,0.913951026275754,new,1.0,stimuli/278.png,unstructured,39,1,new,241067.0,0,-1,new,241067.0,,,,,0.8476379611673729
574,0.7824544925242662,old,1.0,stimuli/143.png,unstructured,40,1,nonboundary,241067.0,1,1,nonboundary,241067.0,stimuli/143.png,378.2352941176471,8.0,2.553535945932655,0.8823529411764706
575,1.598039384931326,new,1.0,stimuli/59.png,unstructured,41,1,new,241067.0,0,-1,new,241067.0,,,,,0.8476379611673729
576,1.8161393851041794,old,1.0,stimuli/264.png,unstructured,42,1,nonboundary,241067.0,1,1,nonboundary,241067.0,stimuli/264.png,373.3333333333333,1.0,1.5268650349850457,0.8888888888888888
577,7.6429858803749084,new,1.0,stimuli/51.png,unstructured,43,1,new,241067.0,0,-1,new,241067.0,,,,,0.8476379611673729
578,1.0226019863039255,new,1.0,stimuli/163.png,unstructured,44,1,new,241067.0,0,-1,new,241067.0,,,,,0.8476379611673729
579,0.8751356415450573,old,1.0,stimuli/10.png,unstructured,45,1,nonboundary,241067.0,1,1,nonboundary,241067.0,stimuli/10.png,364.88235294117646,13.0,1.6180458785418201,0.8823529411764706
580,1.1360022015869617,old,1.0,stimuli/77.png,unstructured,46,1,nonboundary,241067.0,1,1,nonboundary,241067.0,stimuli/77.png,389.0,12.0,1.2692889405621424,0.9444444444444444
581,0.755820132791996,old,1.0,stimuli/202.png,unstructured,47,1,nonboundary,241067.0,1,1,nonboundary,241067.0,stimuli/202.png,360.6666666666667,6.0,2.1391865133884407,0.7619047619047619
582,0.8926584515720606,new,1.0,stimuli/94.png,unstructured,48,1,new,241067.0,0,-1,new,241067.0,,,,,0.8476379611673729
583,0.9002218283712864,new,1.0,stimuli/36.png,unstructured,49,1,new,241067.0,0,-1,new,241067.0,,,,,0.8476379611673729
584,4.293099269270897,new,1.0,stimuli/74.png,unstructured,50,1,new,241067.0,0,-1,new,241067.0,,,,,0.8476379611673729
585,1.5476729273796082,old,1.0,stimuli/228.png,unstructured,51,1,boundary,241067.0,1,1,boundary,241067.0,stimuli/228.png,406.2352941176471,4.0,1.5834337463054586,0.8235294117647058
586,2.053134996443987,old,1.0,stimuli/60.png,unstructured,52,1,nonboundary,241067.0,1,1,nonboundary,241067.0,stimuli/60.png,347.5,11.0,1.6056610764935613,0.8
587,1.1536010783165693,old,1.0,stimuli/46.png,unstructured,53,1,boundary,241067.0,1,1,boundary,241067.0,stimuli/46.png,351.75,9.0,2.058787877019495,0.85
588,0.6703990027308464,old,1.0,stimuli/156.png,unstructured,54,1,nonboundary,241067.0,1,1,nonboundary,241067.0,stimuli/156.png,380.6111111111111,7.0,0.9417296179259816,0.8888888888888888
589,0.7715955544263124,new,1.0,stimuli/54.png,unstructured,55,1,new,241067.0,0,-1,new,241067.0,,,,,0.8476379611673729
590,0.6267724819481373,new,1.0,stimuli/195.png,unstructured,56,1,new,241067.0,0,-1,new,241067.0,,,,,0.8476379611673729
591,1.2090919874608517,new,1.0,stimuli/124.png,unstructured,57,1,new,241067.0,0,-1,new,241067.0,,,,,0.8476379611673729
592,1.3125249221920967,old,1.0,stimuli/286.png,unstructured,58,1,nonboundary,241067.0,1,1,nonboundary,241067.0,stimuli/286.png,361.90909090909093,2.0,1.2648844701999968,1.0
593,0.9666619282215834,new,1.0,stimuli/167.png,unstructured,59,1,new,241067.0,0,-1,new,241067.0,,,,,0.8476379611673729
594,4.796783158555627,new,0.0,stimuli/220.png,unstructured,60,2,new,241067.0,1,1,new,241067.0,,,,,0.9808006535947712
595,1.0086578726768494,new,1.0,stimuli/34.png,unstructured,61,2,new,241067.0,0,-1,new,241067.0,,,,,0.9808006535947712
596,0.7762361448258162,new,1.0,stimuli/11.png,unstructured,62,2,new,241067.0,0,-1,new,241067.0,,,,,0.9808006535947712
597,0.6800837554037571,old,1.0,stimuli/156.png,unstructured,63,2,nonboundary,241067.0,1,1,nonboundary,241067.0,stimuli/156.png,624.3333333333334,7.0,1.2451554545511803,1.0
598,0.9188608676195145,old,1.0,stimuli/202.png,unstructured,64,2,nonboundary,241067.0,1,1,nonboundary,241067.0,stimuli/202.png,610.5714285714286,6.0,0.692913121942963,1.0
599,1.073442643508315,new,0.0,stimuli/140.png,unstructured,65,2,new,241067.0,1,1,new,241067.0,,,,,0.9808006535947712
600,1.6693316716700792,new,0.0,stimuli/296.png,unstructured,66,2,new,241067.0,1,1,new,241067.0,,,,,0.9808006535947712
601,0.6751241106539965,old,1.0,stimuli/60.png,unstructured,67,2,nonboundary,241067.0,1,1,nonboundary,241067.0,stimuli/60.png,621.2777777777778,11.0,2.0688142595398755,1.0
602,0.9362822566181421,new,1.0,stimuli/207.png,unstructured,68,2,new,241067.0,0,-1,new,241067.0,,,,,0.9808006535947712
603,0.7891467362642288,old,1.0,stimuli/8.png,unstructured,69,2,nonboundary,241067.0,1,1,nonboundary,241067.0,stimuli/8.png,608.8333333333334,3.0,0.8975511873140931,1.0
604,0.9107128139585257,new,1.0,stimuli/84.png,unstructured,70,2,new,241067.0,0,-1,new,241067.0,,,,,0.9808006535947712
605,0.6152020916342735,old,1.0,stimuli/127.png,unstructured,71,2,boundary,241067.0,1,1,boundary,241067.0,stimuli/127.png,637.7083333333334,0.0,1.0846775451985498,0.9583333333333334
606,0.6940737515687943,old,1.0,stimuli/286.png,unstructured,72,2,nonboundary,241067.0,1,1,nonboundary,241067.0,stimuli/286.png,647.0555555555555,2.0,1.0198751689038343,1.0
607,3.445991611108184,new,1.0,stimuli/71.png,unstructured,73,2,new,241067.0,0,-1,new,241067.0,,,,,0.9808006535947712
608,1.1892500892281532,old,1.0,stimuli/10.png,unstructured,74,2,nonboundary,241067.0,1,1,nonboundary,241067.0,stimuli/10.png,604.8235294117648,13.0,1.7339354076367968,0.9411764705882353
609,0.8271226845681667,old,1.0,stimuli/154.png,unstructured,75,2,boundary,241067.0,1,1,boundary,241067.0,stimuli/154.png,614.6,5.0,1.170126917678863,1.0
610,0.7192852031439543,old,1.0,stimuli/222.png,unstructured,76,2,boundary,241067.0,1,1,boundary,241067.0,stimuli/222.png,619.5,14.0,0.875890429248102,1.0
611,0.9458136707544327,new,1.0,stimuli/270.png,unstructured,77,2,new,241067.0,0,-1,new,241067.0,,,,,0.9808006535947712
612,1.1490229684859514,old,1.0,stimuli/189.png,unstructured,78,2,boundary,241067.0,1,1,boundary,241067.0,stimuli/189.png,634.75,10.0,1.3297849356895313,0.8125
613,0.8648514207452536,new,1.0,stimuli/187.png,unstructured,79,2,new,241067.0,0,-1,new,241067.0,,,,,0.9808006535947712
614,1.1563569381833076,old,1.0,stimuli/264.png,unstructured,80,2,nonboundary,241067.0,1,1,nonboundary,241067.0,stimuli/264.png,617.8181818181819,1.0,2.2434646536342124,1.0
615,0.660877849906683,new,1.0,stimuli/212.png,unstructured,81,2,new,241067.0,0,-1,new,241067.0,,,,,0.9808006535947712
616,0.6417516302317381,new,0.0,stimuli/268.png,unstructured,82,2,new,241067.0,1,1,new,241067.0,,,,,0.9808006535947712
617,0.7759279608726501,new,1.0,stimuli/287.png,unstructured,83,2,new,241067.0,0,-1,new,241067.0,,,,,0.9808006535947712
618,0.7014454547315836,new,1.0,stimuli/33.png,unstructured,84,2,new,241067.0,0,-1,new,241067.0,,,,,0.9808006535947712
619,1.0750161707401276,old,1.0,stimuli/77.png,unstructured,85,2,nonboundary,241067.0,1,1,nonboundary,241067.0,stimuli/77.png,598.8333333333334,12.0,0.7397383911949065,1.0
620,0.7294867187738419,old,1.0,stimuli/228.png,unstructured,86,2,boundary,241067.0,1,1,boundary,241067.0,stimuli/228.png,629.5,4.0,0.7406535216141492,1.0
621,0.6443245708942413,old,1.0,stimuli/46.png,unstructured,87,2,boundary,241067.0,1,1,boundary,241067.0,stimuli/46.png,645.6923076923077,9.0,0.9902628408028529,1.0
622,0.6758582033216953,new,0.0,stimuli/242.png,unstructured,88,2,new,241067.0,1,1,new,241067.0,,,,,0.9808006535947712
623,0.595454066991806,old,1.0,stimuli/143.png,unstructured,89,2,nonboundary,241067.0,1,1,nonboundary,241067.0,stimuli/143.png,654.2666666666667,8.0,0.7489594385027886,1.0
624,5.388295537762133,old,1.0,stimuli/11.png,structured,0,0,nonboundary,241068.0,1,1,nonboundary,241068.0,stimuli/11.png,101.08695652173913,3.0,1.8402832992536289,0.8260869565217391
625,1.2463096417495763,old,1.0,stimuli/167.png,structured,1,0,nonboundary,241068.0,1,1,nonboundary,241068.0,stimuli/167.png,122.8695652173913,2.0,1.6013930117585609,0.8695652173913043
626,1.078499840921154,old,1.0,stimuli/100.png,structured,2,0,nonboundary,241068.0,1,1,nonboundary,241068.0,stimuli/100.png,116.72222222222223,7.0,1.2170206984994851,0.9444444444444444
627,3.436433348969558,new,0.0,stimuli/155.png,structured,3,0,new,241068.0,1,1,new,241068.0,,,,,0.8089593962735617
628,1.429460743740492,old,1.0,stimuli/239.png,structured,4,0,nonboundary,241068.0,1,1,nonboundary,241068.0,stimuli/239.png,161.88888888888889,13.0,3.18346446356342,0.4444444444444444
629,6.74658221902655,new,1.0,stimuli/247.png,structured,5,0,new,241068.0,0,-1,new,241068.0,,,,,0.8089593962735617
630,1.2369251954979745,new,1.0,stimuli/147.png,structured,6,0,new,241068.0,0,-1,new,241068.0,,,,,0.8089593962735617
631,0.9064945234002835,old,1.0,stimuli/125.png,structured,7,0,boundary,241068.0,1,1,boundary,241068.0,stimuli/125.png,96.15,0.0,1.5046170455279508,0.95
632,2.2910111077503643,new,1.0,stimuli/16.png,structured,8,0,new,241068.0,0,-1,new,241068.0,,,,,0.8089593962735617
633,3.6267608099681183,new,1.0,stimuli/170.png,structured,9,0,new,241068.0,0,-1,new,241068.0,,,,,0.8089593962735617
634,8.798392126108865,old,1.0,stimuli/263.png,structured,10,0,boundary,241068.0,1,1,boundary,241068.0,stimuli/263.png,115.70967741935483,4.0,1.5282259792893473,0.8064516129032258
635,2.791611200360421,new,1.0,stimuli/18.png,structured,11,0,new,241068.0,0,-1,new,241068.0,,,,,0.8089593962735617
636,2.0685509212387387,new,1.0,stimuli/223.png,structured,12,0,new,241068.0,0,-1,new,241068.0,,,,,0.8089593962735617
637,1.0714668642021934,old,1.0,stimuli/189.png,structured,13,0,nonboundary,241068.0,1,1,nonboundary,241068.0,stimuli/189.png,126.2,12.0,2.5485419983325754,0.8
638,0.9206265836196508,new,1.0,stimuli/106.png,structured,14,0,new,241068.0,0,-1,new,241068.0,,,,,0.8089593962735617
639,0.8374814584060459,new,1.0,stimuli/35.png,structured,15,0,new,241068.0,0,-1,new,241068.0,,,,,0.8089593962735617
640,0.9246476267062462,old,1.0,stimuli/262.png,structured,16,0,nonboundary,241068.0,1,1,nonboundary,241068.0,stimuli/262.png,144.93333333333334,6.0,1.2690759519628008,1.0
641,1.2275193173675234,new,1.0,stimuli/142.png,structured,17,0,new,241068.0,0,-1,new,241068.0,,,,,0.8089593962735617
642,0.8793382198018662,old,1.0,stimuli/225.png,structured,18,0,nonboundary,241068.0,1,1,nonboundary,241068.0,stimuli/225.png,80.33333333333333,11.0,1.6163279121747773,1.0
643,1.864229952590449,old,1.0,stimuli/32.png,structured,19,0,nonboundary,241068.0,1,1,nonboundary,241068.0,stimuli/32.png,140.22222222222223,8.0,1.4935129492485544,0.8333333333333334
644,1.6218625691328725,new,1.0,stimuli/91.png,structured,20,0,new,241068.0,0,-1,new,241068.0,,,,,0.8089593962735617
645,1.9617157215207044,new,1.0,stimuli/211.png,structured,21,0,new,241068.0,0,-1,new,241068.0,,,,,0.8089593962735617
646,0.8599164096349341,new,1.0,stimuli/172.png,structured,22,0,new,241068.0,0,-1,new,241068.0,,,,,0.8089593962735617
647,1.1265205314380182,old,1.0,stimuli/230.png,structured,23,0,boundary,241068.0,1,1,boundary,241068.0,stimuli/230.png,126.32142857142857,5.0,1.4748422406723267,0.8214285714285714
648,0.7736651712648381,old,1.0,stimuli/40.png,structured,24,0,boundary,241068.0,1,1,boundary,241068.0,stimuli/40.png,167.5,10.0,2.733228548550642,0.5
649,1.08319553540764,new,1.0,stimuli/88.png,structured,25,0,new,241068.0,0,-1,new,241068.0,,,,,0.8089593962735617
650,4.4165496969048945,old,1.0,stimuli/204.png,structured,26,0,boundary,241068.0,1,1,boundary,241068.0,stimuli/204.png,170.4375,9.0,1.1097733858021854,0.875
651,1.0988009618383785,old,1.0,stimuli/25.png,structured,27,0,nonboundary,241068.0,1,1,nonboundary,241068.0,stimuli/25.png,109.81818181818181,1.0,1.6276606195838135,0.8636363636363636
652,2.027032240186827,new,1.0,stimuli/148.png,structured,28,0,new,241068.0,0,-1,new,241068.0,,,,,0.8089593962735617
653,1.1792640836119972,old,1.0,stimuli/195.png,structured,29,0,boundary,241068.0,1,1,boundary,241068.0,stimuli/195.png,141.0,14.0,2.6596774894636668,0.6
654,1.019963040573657,old,1.0,stimuli/195.png,structured,30,1,boundary,241068.0,1,1,boundary,241068.0,stimuli/195.png,398.17857142857144,14.0,0.9328404691140528,1.0
655,3.407603849527277,new,1.0,stimuli/60.png,structured,31,1,new,241068.0,0,-1,new,241068.0,,,,,0.914430718531405
656,0.885504563782888,old,1.0,stimuli/225.png,structured,32,1,nonboundary,241068.0,1,1,nonboundary,241068.0,stimuli/225.png,407.3809523809524,11.0,0.8191601630041121,0.9047619047619048
657,1.0266111490445837,new,1.0,stimuli/153.png,structured,33,1,new,241068.0,0,-1,new,241068.0,,,,,0.914430718531405
658,0.7011828586023512,old,1.0,stimuli/125.png,structured,34,1,boundary,241068.0,1,1,boundary,241068.0,stimuli/125.png,337.72,0.0,1.1119188655472225,0.92
659,0.9036760803933248,old,1.0,stimuli/25.png,structured,35,1,nonboundary,241068.0,1,1,nonboundary,241068.0,stimuli/25.png,320.0,1.0,1.0550335084079783,0.8695652173913043
660,1.0418827211360622,old,1.0,stimuli/189.png,structured,36,1,nonboundary,241068.0,1,1,nonboundary,241068.0,stimuli/189.png,414.1923076923077,12.0,0.8861072454007469,0.9230769230769231
661,0.7060041257873308,old,1.0,stimuli/100.png,structured,37,1,nonboundary,241068.0,1,1,nonboundary,241068.0,stimuli/100.png,474.0,7.0,0.9099957679586624,1.0
662,0.8605364248364822,new,1.0,stimuli/260.png,structured,38,1,new,241068.0,0,-1,new,241068.0,,,,,0.914430718531405
663,1.0420478371611352,new,1.0,stimuli/33.png,structured,39,1,new,241068.0,0,-1,new,241068.0,,,,,0.914430718531405
664,0.8949185920646414,old,1.0,stimuli/32.png,structured,40,1,nonboundary,241068.0,1,1,nonboundary,241068.0,stimuli/32.png,453.0,8.0,1.1074680222999242,1.0
665,0.8006986188811425,new,1.0,stimuli/152.png,structured,41,1,new,241068.0,0,-1,new,241068.0,,,,,0.914430718531405
666,1.050566858104503,new,0.0,stimuli/232.png,structured,42,1,new,241068.0,1,1,new,241068.0,,,,,0.914430718531405
667,1.2440457108773444,new,1.0,stimuli/63.png,structured,43,1,new,241068.0,0,-1,new,241068.0,,,,,0.914430718531405
668,0.9179961978034044,new,1.0,stimuli/209.png,structured,44,1,new,241068.0,0,-1,new,241068.0,,,,,0.914430718531405
669,0.7597851620162146,new,1.0,stimuli/114.png,structured,45,1,new,241068.0,0,-1,new,241068.0,,,,,0.914430718531405
670,0.9113402410389426,old,1.0,stimuli/239.png,structured,46,1,nonboundary,241068.0,1,1,nonboundary,241068.0,stimuli/239.png,416.36,13.0,0.8094180007257,0.92
671,0.7841550194971205,old,1.0,stimuli/263.png,structured,47,1,boundary,241068.0,1,1,boundary,241068.0,stimuli/263.png,311.42857142857144,4.0,1.2504811392134993,0.8571428571428571
672,7.000932437661959,old,1.0,stimuli/11.png,structured,48,1,nonboundary,241068.0,1,1,nonboundary,241068.0,stimuli/11.png,318.08,3.0,1.3243734556218079,0.92
673,1.0973635166633358,new,1.0,stimuli/186.png,structured,49,1,new,241068.0,0,-1,new,241068.0,,,,,0.914430718531405
674,1.11694289641855,old,1.0,stimuli/204.png,structured,50,1,boundary,241068.0,1,1,boundary,241068.0,stimuli/204.png,430.1111111111111,9.0,0.9368260319718805,1.0
675,1.125752907943479,new,1.0,stimuli/95.png,structured,51,1,new,241068.0,0,-1,new,241068.0,,,,,0.914430718531405
676,1.7699535320643918,new,1.0,stimuli/278.png,structured,52,1,new,241068.0,0,-1,new,241068.0,,,,,0.914430718531405
677,0.9644680577466715,new,1.0,stimuli/132.png,structured,53,1,new,241068.0,0,-1,new,241068.0,,,,,0.914430718531405
678,0.7816550360989822,old,1.0,stimuli/262.png,structured,54,1,nonboundary,241068.0,1,1,nonboundary,241068.0,stimuli/262.png,470.3333333333333,6.0,1.357262177080429,1.0
679,0.7958221117823996,old,1.0,stimuli/40.png,structured,55,1,boundary,241068.0,1,1,boundary,241068.0,stimuli/40.png,421.0,10.0,1.0244112278388264,0.9473684210526315
680,1.467373435699301,new,1.0,stimuli/0.png,structured,56,1,new,241068.0,0,-1,new,241068.0,,,,,0.914430718531405
681,0.8318892472943844,new,0.0,stimuli/219.png,structured,57,1,new,241068.0,1,1,new,241068.0,,,,,0.914430718531405
682,0.7577035530434841,old,1.0,stimuli/230.png,structured,58,1,boundary,241068.0,1,1,boundary,241068.0,stimuli/230.png,400.5,5.0,0.8280232080082897,0.5
683,0.9162454245956724,old,1.0,stimuli/167.png,structured,59,1,nonboundary,241068.0,1,1,nonboundary,241068.0,stimuli/167.png,313.6818181818182,2.0,1.0126607109643517,0.9545454545454546
684,1.1866176329426708,old,1.0,stimuli/263.png,structured,60,2,boundary,241068.0,1,1,boundary,241068.0,stimuli/263.png,597.4,4.0,1.2183284221126542,1.0
685,0.9064794305277246,new,1.0,stimuli/99.png,structured,61,2,new,241068.0,0,-1,new,241068.0,,,,,0.9453260888980529
686,0.8566343135853458,old,1.0,stimuli/40.png,structured,62,2,boundary,241068.0,1,1,boundary,241068.0,stimuli/40.png,622.8965517241379,10.0,0.8799466811491553,0.9655172413793104
687,1.936252234499534,old,1.0,stimuli/225.png,structured,63,2,nonboundary,241068.0,1,1,nonboundary,241068.0,stimuli/225.png,595.3333333333334,11.0,0.7611828738067743,0.9259259259259259
688,1.2580905342938422,old,1.0,stimuli/195.png,structured,64,2,boundary,241068.0,1,1,boundary,241068.0,stimuli/195.png,606.4782608695652,14.0,0.9176498098180396,0.9130434782608695
689,0.7982867778587206,new,1.0,stimuli/290.png,structured,65,2,new,241068.0,0,-1,new,241068.0,,,,,0.9453260888980529
690,0.8931285773883246,new,1.0,stimuli/261.png,structured,66,2,new,241068.0,0,-1,new,241068.0,,,,,0.9453260888980529
691,2.105035827460597,new,1.0,stimuli/140.png,structured,67,2,new,241068.0,0,-1,new,241068.0,,,,,0.9453260888980529
692,1.1360051943629514,old,1.0,stimuli/239.png,structured,68,2,nonboundary,241068.0,1,1,nonboundary,241068.0,stimuli/239.png,614.074074074074,13.0,0.9528357573268901,0.9629629629629629
693,0.9954247466357629,old,1.0,stimuli/204.png,structured,69,2,boundary,241068.0,1,1,boundary,241068.0,stimuli/204.png,663.5625,9.0,0.7399425059662121,0.9375
694,1.2045929422106383,new,1.0,stimuli/164.png,structured,70,2,new,241068.0,0,-1,new,241068.0,,,,,0.9453260888980529
695,0.9344767089810375,new,1.0,stimuli/46.png,structured,71,2,new,241068.0,0,-1,new,241068.0,,,,,0.9453260888980529
696,0.691974093385852,new,1.0,stimuli/68.png,structured,72,2,new,241068.0,0,-1,new,241068.0,,,,,0.9453260888980529
697,0.988490477303003,new,1.0,stimuli/163.png,structured,73,2,new,241068.0,0,-1,new,241068.0,,,,,0.9453260888980529
